build,computer.platform,date,time,subject,group,blockcode,blocknum,trialcode,trialnum,expressions.trialcount,parameters.digitpresentationtime,parameters.maskpresentationtime,values.trialtype,values.digit,values.fontsize,response,correct,values.RT,latency,values.latencytype,values.responsetype,values.count_anticipatory,values.correctsuppressions,values.count_NoGo,values.incorrectsuppressions,values.count_Go,values.count_validGo,values.dostim,values.amp,values.order
3.8.10,Windows,93022,10:16:33,1,0,SART,1,go,1,1,25,90,go,1,13ptc,space,1,1051,1051,3,Go Success,0,0,0,0,1,1,0.0,0,BBAA
3.8.10,Windows,93022,10:16:33,1,0,SART,1,go,2,2,25,90,go,6,16ptc,space,1,957,957,3,Go Success,0,0,0,0,2,2,0.0,0,BBAA
3.8.10,Windows,93022,10:16:33,1,0,SART,1,go,3,3,25,90,go,2,10ptc,space,1,879,879,3,Go Success,0,0,0,0,3,3,0.0,0,BBAA
3.8.10,Windows,93022,10:16:33,1,0,SART,1,go,4,4,25,90,go,9,21ptc,space,1,956,956,3,Go Success,0,0,0,0,4,4,0.0,0,BBAA
3.8.10,Windows,93022,10:16:33,1,0,SART,1,go,5,5,25,90,go,6,19ptc,space,1,956,956,3,Go Success,0,0,0,0,5,5,1.0,0,BBAA
3.8.10,Windows,93022,10:16:33,1,0,SART,1,go,6,6,25,90,go,2,21ptc,space,1,955,955,3,Go Success,0,0,0,0,6,6,1.0,0,BBAA
3.8.10,Windows,93022,10:16:33,1,0,SART,1,nogo,7,7,25,90,nogo,3,10ptc,space,0,955,955,3,NoGo Failure,0,0,1,0,6,6,1.0,0,BBAA
3.8.10,Windows,93022,10:16:33,1,0,SART,1,go,8,8,25,90,go,6,16ptc,space,1,956,956,3,Go Success,0,0,1,0,7,7,1.0,0,BBAA
3.8.10,Windows,93022,10:16:33,1,0,SART,1,go,9,9,25,90,go,2,19ptc,space,1,980,980,3,Go Success,0,0,1,0,8,8,1.0,0,BBAA
3.8.10,Windows,93022,10:16:33,1,0,SART,1,go,10,10,25,90,go,1,13ptc,space,1,963,963,3,Go Success,0,0,1,0,9,9,0.0,0,BBAA
3.8.10,Windows,93022,10:16:33,1,0,SART,1,go,11,11,25,90,go,5,10ptc,space,1,956,956,3,Go Success,0,0,1,0,10,10,0.0,0,BBAA
3.8.10,Windows,93022,10:16:33,1,0,SART,1,go,12,12,25,90,go,1,19ptc,space,1,1026,1026,3,Go Success,0,0,1,0,11,11,0.0,0,BBAA
3.8.10,Windows,93022,10:16:33,1,0,SART,1,go,13,13,25,90,go,1,13ptc,space,1,962,962,3,Go Success,0,0,1,0,12,12,1.0,0,BBAA
3.8.10,Windows,93022,10:16:33,1,0,SART,1,go,14,14,25,90,go,1,21ptc,space,1,954,954,3,Go Success,0,0,1,0,13,13,1.0,0,BBAA
3.8.10,Windows,93022,10:16:33,1,0,SART,1,nogo,15,15,25,90,nogo,3,16ptc,space,0,901,901,3,NoGo Failure,0,0,2,0,13,13,1.0,0,BBAA
3.8.10,Windows,93022,10:16:33,1,0,SART,1,go,16,16,25,90,go,2,19ptc,space,1,1095,1095,3,Go Success,0,0,2,0,14,14,1.0,0,BBAA
3.8.10,Windows,93022,10:16:33,1,0,SART,1,go,17,17,25,90,go,2,16ptc,space,1,1009,1009,3,Go Success,0,0,2,0,15,15,1.0,0,BBAA
3.8.10,Windows,93022,10:16:33,1,0,SART,1,go,18,18,25,90,go,2,10ptc,space,1,1022,1022,3,Go Success,0,0,2,0,16,16,1.0,0,BBAA
3.8.10,Windows,93022,10:16:33,1,0,SART,1,nogo,19,19,25,90,nogo,3,13ptc,space,0,956,956,3,NoGo Failure,0,0,3,0,16,16,1.0,0,BBAA
3.8.10,Windows,93022,10:16:33,1,0,SART,1,go,20,20,25,90,go,8,21ptc,space,1,1023,1023,3,Go Success,0,0,3,0,17,17,1.0,0,BBAA
3.8.10,Windows,93022,10:16:33,1,0,SART,1,go,21,21,25,90,go,9,13ptc,space,1,955,955,3,Go Success,0,0,3,0,18,18,1.0,0,BBAA
3.8.10,Windows,93022,10:16:33,1,0,SART,1,nogo,22,22,25,90,nogo,3,16ptc,space,0,972,972,3,NoGo Failure,0,0,4,0,18,18,1.0,0,BBAA
3.8.10,Windows,93022,10:16:33,1,0,SART,1,go,23,23,25,90,go,2,10ptc,0,0,0,0,0,Omission,0,0,4,1,19,18,1.0,0,BBAA
3.8.10,Windows,93022,10:16:33,1,0,SART,1,go,24,24,25,90,go,6,21ptc,space,1,704,704,3,Go Success,0,0,4,1,20,19,1.0,0,BBAA
3.8.10,Windows,93022,10:16:33,1,0,SART,1,go,25,25,25,90,go,4,19ptc,space,1,1009,1009,3,Go Success,0,0,4,1,21,20,0.0,0,BBAA
3.8.10,Windows,93022,10:16:33,1,0,SART,1,go,26,26,25,90,go,9,10ptc,space,1,807,807,3,Go Success,0,0,4,1,22,21,0.0,0,BBAA
3.8.10,Windows,93022,10:16:33,1,0,SART,1,go,27,27,25,90,go,6,21ptc,space,1,828,828,3,Go Success,0,0,4,1,23,22,0.0,0,BBAA
3.8.10,Windows,93022,10:16:33,1,0,SART,1,go,28,28,25,90,go,4,16ptc,space,1,1046,1046,3,Go Success,0,0,4,1,24,23,0.0,0,BBAA
3.8.10,Windows,93022,10:16:33,1,0,SART,1,go,29,29,25,90,go,1,19ptc,space,1,974,974,3,Go Success,0,0,4,1,25,24,0.0,0,BBAA
3.8.10,Windows,93022,10:16:33,1,0,SART,1,go,30,30,25,90,go,5,13ptc,space,1,1022,1022,3,Go Success,0,0,4,1,26,25,0.0,0,BBAA
3.8.10,Windows,93022,10:16:33,1,0,SART,1,go,31,31,25,90,go,9,16ptc,space,1,980,980,3,Go Success,0,0,4,1,27,26,0.0,0,BBAA
3.8.10,Windows,93022,10:16:33,1,0,SART,1,go,32,32,25,90,go,6,19ptc,space,1,1099,1099,3,Go Success,0,0,4,1,28,27,0.0,0,BBAA
3.8.10,Windows,93022,10:16:33,1,0,SART,1,go,33,33,25,90,go,8,21ptc,space,1,1006,1006,3,Go Success,0,0,4,1,29,28,0.0,0,BBAA
3.8.10,Windows,93022,10:16:33,1,0,SART,1,go,34,34,25,90,go,6,13ptc,space,1,961,961,3,Go Success,0,0,4,1,30,29,0.0,0,BBAA
3.8.10,Windows,93022,10:16:33,1,0,SART,1,go,35,35,25,90,go,8,10ptc,space,1,1032,1032,3,Go Success,0,0,4,1,31,30,0.0,0,BBAA
3.8.10,Windows,93022,10:16:33,1,0,SART,1,go,36,36,25,90,go,8,21ptc,space,1,1013,1013,3,Go Success,0,0,4,1,32,31,0.0,0,BBAA
3.8.10,Windows,93022,10:16:33,1,0,SART,1,go,37,37,25,90,go,8,13ptc,space,1,1057,1057,3,Go Success,0,0,4,1,33,32,0.0,0,BBAA
3.8.10,Windows,93022,10:16:33,1,0,SART,1,go,38,38,25,90,go,4,19ptc,space,1,1121,1121,3,Go Success,0,0,4,1,34,33,0.0,0,BBAA
3.8.10,Windows,93022,10:16:33,1,0,SART,1,go,39,39,25,90,go,2,10ptc,0,0,0,0,0,Omission,0,0,4,2,35,33,0.0,0,BBAA
3.8.10,Windows,93022,10:16:33,1,0,SART,1,go,40,40,25,90,go,6,16ptc,space,1,1155,1155,3,Go Success,0,0,4,2,36,34,0.0,0,BBAA
3.8.10,Windows,93022,10:16:33,1,0,SART,1,go,41,41,25,90,go,5,21ptc,space,1,1016,1016,3,Go Success,0,0,4,2,37,35,0.0,0,BBAA
3.8.10,Windows,93022,10:16:33,1,0,SART,1,go,42,42,25,90,go,7,19ptc,0,0,0,0,0,Omission,0,0,4,3,38,35,1.0,0,BBAA
3.8.10,Windows,93022,10:16:33,1,0,SART,1,go,43,43,25,90,go,7,10ptc,0,0,0,0,0,Omission,0,0,4,4,39,35,1.0,0,BBAA
3.8.10,Windows,93022,10:16:33,1,0,SART,1,nogo,44,44,25,90,nogo,3,16ptc,space,0,703,703,3,NoGo Failure,0,0,5,4,39,35,1.0,0,BBAA
3.8.10,Windows,93022,10:16:33,1,0,SART,1,go,45,45,25,90,go,2,13ptc,0,0,0,0,0,Omission,0,0,5,5,40,35,1.0,0,BBAA
3.8.10,Windows,93022,10:16:33,1,0,SART,1,nogo,46,46,25,90,nogo,3,13ptc,space,0,1070,1070,3,NoGo Failure,0,0,6,5,40,35,1.0,0,BBAA
3.8.10,Windows,93022,10:16:33,1,0,SART,1,go,47,47,25,90,go,9,16ptc,0,0,0,0,0,Omission,0,0,6,6,41,35,1.0,0,BBAA
3.8.10,Windows,93022,10:16:33,1,0,SART,1,go,48,48,25,90,go,7,10ptc,space,1,1039,1039,3,Go Success,0,0,6,6,42,36,1.0,0,BBAA
3.8.10,Windows,93022,10:16:33,1,0,SART,1,go,49,49,25,90,go,1,19ptc,space,1,956,956,3,Go Success,0,0,6,6,43,37,0.0,0,BBAA
3.8.10,Windows,93022,10:16:33,1,0,SART,1,go,50,50,25,90,go,4,21ptc,space,1,987,987,3,Go Success,0,0,6,6,44,38,0.0,0,BBAA
3.8.10,Windows,93022,10:16:33,1,0,SART,1,go,51,51,25,90,go,5,21ptc,space,1,1027,1027,3,Go Success,0,0,6,6,45,39,0.0,0,BBAA
3.8.10,Windows,93022,10:16:33,1,0,SART,1,go,52,52,25,90,go,8,16ptc,space,1,991,991,3,Go Success,0,0,6,6,46,40,0.0,0,BBAA
3.8.10,Windows,93022,10:16:33,1,0,SART,1,go,53,53,25,90,go,1,10ptc,space,1,959,959,3,Go Success,0,0,6,6,47,41,0.0,0,BBAA
3.8.10,Windows,93022,10:16:33,1,0,SART,1,go,54,54,25,90,go,8,19ptc,space,1,962,962,3,Go Success,0,0,6,6,48,42,0.0,0,BBAA
3.8.10,Windows,93022,10:16:33,1,0,SART,1,go,55,55,25,90,go,9,13ptc,space,1,894,894,3,Go Success,0,0,6,6,49,43,0.0,0,BBAA
3.8.10,Windows,93022,10:16:33,1,0,SART,1,go,56,56,25,90,go,8,21ptc,space,1,1003,1003,3,Go Success,0,0,6,6,50,44,0.0,0,BBAA
3.8.10,Windows,93022,10:16:33,1,0,SART,1,go,57,57,25,90,go,1,13ptc,space,1,1053,1053,3,Go Success,0,0,6,6,51,45,0.0,0,BBAA
3.8.10,Windows,93022,10:16:33,1,0,SART,1,go,58,58,25,90,go,5,16ptc,space,1,1150,1150,3,Go Success,0,0,6,6,52,46,0.0,0,BBAA
3.8.10,Windows,93022,10:16:33,1,0,SART,1,go,59,59,25,90,go,2,19ptc,space,1,1050,1050,3,Go Success,0,0,6,6,53,47,0.0,0,BBAA
3.8.10,Windows,93022,10:16:33,1,0,SART,1,go,60,60,25,90,go,2,10ptc,space,1,1103,1103,3,Go Success,0,0,6,6,54,48,0.0,0,BBAA
3.8.10,Windows,93022,10:16:33,1,0,SART,1,go,61,61,25,90,go,9,10ptc,0,0,0,0,0,Omission,0,0,6,7,55,48,0.0,0,BBAA
3.8.10,Windows,93022,10:16:33,1,0,SART,1,go,62,62,25,90,go,6,13ptc,space,1,706,706,3,Go Success,0,0,6,7,56,49,0.0,0,BBAA
3.8.10,Windows,93022,10:16:33,1,0,SART,1,go,63,63,25,90,go,5,19ptc,space,1,960,960,3,Go Success,0,0,6,7,57,50,1.0,0,BBAA
3.8.10,Windows,93022,10:16:33,1,0,SART,1,go,64,64,25,90,go,6,21ptc,space,1,994,994,3,Go Success,0,0,6,7,58,51,1.0,0,BBAA
3.8.10,Windows,93022,10:16:33,1,0,SART,1,nogo,65,65,25,90,nogo,3,16ptc,space,0,1096,1096,3,NoGo Failure,0,0,7,7,58,51,1.0,0,BBAA
3.8.10,Windows,93022,10:16:33,1,0,SART,1,go,66,66,25,90,go,5,16ptc,space,1,1098,1098,3,Go Success,0,0,7,7,59,52,1.0,0,BBAA
3.8.10,Windows,93022,10:16:33,1,0,SART,1,go,67,67,25,90,go,9,19ptc,space,1,1066,1066,3,Go Success,0,0,7,7,60,53,1.0,0,BBAA
3.8.10,Windows,93022,10:16:33,1,0,SART,1,go,68,68,25,90,go,2,21ptc,0,0,0,0,0,Omission,0,0,7,8,61,53,1.0,0,BBAA
3.8.10,Windows,93022,10:16:33,1,0,SART,1,nogo,69,69,25,90,nogo,3,10ptc,space,0,703,703,3,NoGo Failure,0,0,8,8,61,53,1.0,0,BBAA
3.8.10,Windows,93022,10:16:33,1,0,SART,1,go,70,70,25,90,go,5,13ptc,0,0,0,0,0,Omission,0,0,8,9,62,53,1.0,0,BBAA
3.8.10,Windows,93022,10:16:33,1,0,SART,1,go,71,71,25,90,go,5,16ptc,space,1,703,703,3,Go Success,0,0,8,9,63,54,1.0,0,BBAA
3.8.10,Windows,93022,10:16:33,1,0,SART,1,go,72,72,25,90,go,6,21ptc,space,1,1034,1034,3,Go Success,0,0,8,9,64,55,0.0,0,BBAA
3.8.10,Windows,93022,10:16:33,1,0,SART,1,go,73,73,25,90,go,1,19ptc,space,1,1091,1091,3,Go Success,0,0,8,9,65,56,0.0,0,BBAA
3.8.10,Windows,93022,10:16:33,1,0,SART,1,go,74,74,25,90,go,2,10ptc,space,1,1089,1089,3,Go Success,0,0,8,9,66,57,0.0,0,BBAA
3.8.10,Windows,93022,10:16:33,1,0,SART,1,go,75,75,25,90,go,9,13ptc,space,1,1046,1046,3,Go Success,0,0,8,9,67,58,0.0,0,BBAA
3.8.10,Windows,93022,10:16:33,1,0,SART,1,go,76,76,25,90,go,7,13ptc,space,1,963,963,3,Go Success,0,0,8,9,68,59,0.0,0,BBAA
3.8.10,Windows,93022,10:16:33,1,0,SART,1,go,77,77,25,90,go,4,21ptc,space,1,1013,1013,3,Go Success,0,0,8,9,69,60,0.0,0,BBAA
3.8.10,Windows,93022,10:16:33,1,0,SART,1,go,78,78,25,90,go,8,16ptc,space,1,1116,1116,3,Go Success,0,0,8,9,70,61,0.0,0,BBAA
3.8.10,Windows,93022,10:16:33,1,0,SART,1,go,79,79,25,90,go,4,19ptc,space,1,1121,1121,3,Go Success,0,0,8,9,71,62,0.0,0,BBAA
3.8.10,Windows,93022,10:16:33,1,0,SART,1,go,80,80,25,90,go,8,10ptc,space,1,1146,1146,3,Go Success,0,0,8,9,72,63,0.0,0,BBAA
3.8.10,Windows,93022,10:16:33,1,0,SART,1,go,81,81,25,90,go,4,19ptc,0,0,0,0,0,Omission,0,0,8,10,73,63,0.0,0,BBAA
3.8.10,Windows,93022,10:16:33,1,0,SART,1,go,82,82,25,90,go,5,21ptc,space,1,705,705,3,Go Success,0,0,8,10,74,64,0.0,0,BBAA
3.8.10,Windows,93022,10:16:33,1,0,SART,1,go,83,83,25,90,go,5,13ptc,space,1,1158,1158,3,Go Success,0,0,8,10,75,65,1.0,0,BBAA
3.8.10,Windows,93022,10:16:33,1,0,SART,1,go,84,84,25,90,go,6,16ptc,space,1,1149,1149,3,Go Success,0,0,8,10,76,66,1.0,0,BBAA
3.8.10,Windows,93022,10:16:33,1,0,SART,1,nogo,85,85,25,90,nogo,3,10ptc,0,1,0,0,0,NoGo Success,0,1,9,10,76,66,1.0,0,BBAA
3.8.10,Windows,93022,10:16:33,1,0,SART,1,go,86,86,25,90,go,7,10ptc,space,1,1103,1103,3,Go Success,0,1,9,10,77,67,1.0,0,BBAA
3.8.10,Windows,93022,10:16:33,1,0,SART,1,go,87,87,25,90,go,6,19ptc,0,0,0,0,0,Omission,0,1,9,11,78,67,1.0,0,BBAA
3.8.10,Windows,93022,10:16:33,1,0,SART,1,go,88,88,25,90,go,2,13ptc,space,1,702,702,3,Go Success,0,1,9,11,79,68,1.0,0,BBAA
3.8.10,Windows,93022,10:16:33,1,0,SART,1,nogo,89,89,25,90,nogo,3,21ptc,space,0,703,703,3,NoGo Failure,0,1,10,11,79,68,1.0,0,BBAA
3.8.10,Windows,93022,10:16:33,1,0,SART,1,go,90,90,25,90,go,7,16ptc,0,0,0,0,0,Omission,0,1,10,12,80,68,1.0,0,BBAA
3.8.10,Windows,93022,10:16:33,1,0,SART,1,go,91,91,25,90,go,4,16ptc,space,1,703,703,3,Go Success,0,1,10,12,81,69,1.0,0,BBAA
3.8.10,Windows,93022,10:16:33,1,0,SART,1,go,92,92,25,90,go,2,13ptc,space,1,1010,1010,3,Go Success,0,1,10,12,82,70,1.0,0,BBAA
3.8.10,Windows,93022,10:16:33,1,0,SART,1,nogo,93,93,25,90,nogo,3,21ptc,space,0,986,986,3,NoGo Failure,0,1,11,12,82,70,1.0,0,BBAA
3.8.10,Windows,93022,10:16:33,1,0,SART,1,go,94,94,25,90,go,1,10ptc,0,0,0,0,0,Omission,0,1,11,13,83,70,1.0,0,BBAA
3.8.10,Windows,93022,10:16:33,1,0,SART,1,go,95,95,25,90,go,8,19ptc,space,1,702,702,3,Go Success,0,1,11,13,84,71,1.0,0,BBAA
3.8.10,Windows,93022,10:16:33,1,0,SART,1,go,96,96,25,90,go,1,13ptc,space,1,704,704,3,Go Success,0,1,11,13,85,72,0.0,0,BBAA
3.8.10,Windows,93022,10:16:33,1,0,SART,1,go,97,97,25,90,go,4,21ptc,space,1,1084,1084,3,Go Success,0,1,11,13,86,73,0.0,0,BBAA
3.8.10,Windows,93022,10:16:33,1,0,SART,1,go,98,98,25,90,go,7,16ptc,0,0,0,0,0,Omission,0,1,11,14,87,73,0.0,0,BBAA
3.8.10,Windows,93022,10:16:33,1,0,SART,1,go,99,99,25,90,go,1,19ptc,space,1,704,704,3,Go Success,0,1,11,14,88,74,0.0,0,BBAA
3.8.10,Windows,93022,10:16:33,1,0,SART,1,go,100,100,25,90,go,5,10ptc,space,1,705,705,3,Go Success,0,1,11,14,89,75,0.0,0,BBAA
3.8.10,Windows,93022,10:16:33,1,0,SART,1,go,101,101,25,90,go,7,19ptc,space,1,1122,1122,3,Go Success,0,1,11,14,90,76,0.0,0,BBAA
3.8.10,Windows,93022,10:16:33,1,0,SART,1,go,102,102,25,90,go,5,16ptc,space,1,1072,1072,3,Go Success,0,1,11,14,91,77,0.0,0,BBAA
3.8.10,Windows,93022,10:16:33,1,0,SART,1,go,103,103,25,90,go,6,21ptc,space,1,1077,1077,3,Go Success,0,1,11,14,92,78,0.0,0,BBAA
3.8.10,Windows,93022,10:16:33,1,0,SART,1,go,104,104,25,90,go,5,13ptc,space,1,972,972,3,Go Success,0,1,11,14,93,79,0.0,0,BBAA
3.8.10,Windows,93022,10:16:33,1,0,SART,1,go,105,105,25,90,go,5,10ptc,space,1,1035,1035,3,Go Success,0,1,11,14,94,80,0.0,0,BBAA
3.8.10,Windows,93022,10:16:33,1,0,SART,1,go,106,106,25,90,go,7,21ptc,0,0,0,0,0,Omission,0,1,11,15,95,80,0.0,0,BBAA
3.8.10,Windows,93022,10:16:33,1,0,SART,1,go,107,107,25,90,go,4,19ptc,space,1,1156,1156,3,Go Success,0,1,11,15,96,81,0.0,0,BBAA
3.8.10,Windows,93022,10:16:33,1,0,SART,1,go,108,108,25,90,go,9,13ptc,space,1,1039,1039,3,Go Success,0,1,11,15,97,82,0.0,0,BBAA
3.8.10,Windows,93022,10:16:33,1,0,SART,1,go,109,109,25,90,go,8,16ptc,space,1,867,867,3,Go Success,0,1,11,15,98,83,0.0,0,BBAA
3.8.10,Windows,93022,10:16:33,1,0,SART,1,go,110,110,25,90,go,2,10ptc,space,1,988,988,3,Go Success,0,1,11,15,99,84,1.0,0,BBAA
3.8.10,Windows,93022,10:16:33,1,0,SART,1,go,111,111,25,90,go,7,21ptc,0,0,0,0,0,Omission,0,1,11,16,100,84,1.0,0,BBAA
3.8.10,Windows,93022,10:16:33,1,0,SART,1,nogo,112,112,25,90,nogo,3,16ptc,space,0,1020,1020,3,NoGo Failure,0,1,12,16,100,84,1.0,0,BBAA
3.8.10,Windows,93022,10:16:33,1,0,SART,1,go,113,113,25,90,go,2,13ptc,space,1,955,955,3,Go Success,0,1,12,16,101,85,1.0,0,BBAA
3.8.10,Windows,93022,10:16:33,1,0,SART,1,go,114,114,25,90,go,7,19ptc,space,1,956,956,3,Go Success,0,1,12,16,102,86,1.0,0,BBAA
3.8.10,Windows,93022,10:16:33,1,0,SART,1,go,115,115,25,90,go,2,10ptc,space,1,955,955,3,Go Success,0,1,12,16,103,87,0.0,0,BBAA
3.8.10,Windows,93022,10:16:33,1,0,SART,1,go,116,116,25,90,go,4,13ptc,space,1,1094,1094,3,Go Success,0,1,12,16,104,88,0.0,0,BBAA
3.8.10,Windows,93022,10:16:33,1,0,SART,1,go,117,117,25,90,go,6,19ptc,space,1,1077,1077,3,Go Success,0,1,12,16,105,89,0.0,0,BBAA
3.8.10,Windows,93022,10:16:33,1,0,SART,1,go,118,118,25,90,go,6,10ptc,space,1,1034,1034,3,Go Success,0,1,12,16,106,90,0.0,0,BBAA
3.8.10,Windows,93022,10:16:33,1,0,SART,1,go,119,119,25,90,go,5,16ptc,0,0,0,0,0,Omission,0,1,12,17,107,90,0.0,0,BBAA
3.8.10,Windows,93022,10:16:33,1,0,SART,1,go,120,120,25,90,go,2,21ptc,space,1,1094,1094,3,Go Success,0,1,12,17,108,91,0.0,0,BBAA
3.8.10,Windows,93022,10:16:33,1,0,SART,1,go,121,121,25,90,go,7,19ptc,0,0,0,0,0,Omission,0,1,12,18,109,91,0.0,0,BBAA
3.8.10,Windows,93022,10:16:33,1,0,SART,1,go,122,122,25,90,go,4,13ptc,space,1,708,708,3,Go Success,0,1,12,18,110,92,1.0,0,BBAA
3.8.10,Windows,93022,10:16:33,1,0,SART,1,go,123,123,25,90,go,6,21ptc,space,1,703,703,3,Go Success,0,1,12,18,111,93,1.0,0,BBAA
3.8.10,Windows,93022,10:16:33,1,0,SART,1,nogo,124,124,25,90,nogo,3,10ptc,space,0,1109,1109,3,NoGo Failure,0,1,13,18,111,93,1.0,0,BBAA
3.8.10,Windows,93022,10:16:33,1,0,SART,1,go,125,125,25,90,go,1,16ptc,space,1,982,982,3,Go Success,0,1,13,18,112,94,1.0,0,BBAA
3.8.10,Windows,93022,10:16:33,1,0,SART,1,go,126,126,25,90,go,4,16ptc,space,1,1022,1022,3,Go Success,0,1,13,18,113,95,1.0,0,BBAA
3.8.10,Windows,93022,10:16:33,1,0,SART,1,go,127,127,25,90,go,8,19ptc,space,1,1052,1052,3,Go Success,0,1,13,18,114,96,1.0,0,BBAA
3.8.10,Windows,93022,10:16:33,1,0,SART,1,nogo,128,128,25,90,nogo,3,21ptc,space,0,1074,1074,3,NoGo Failure,0,1,14,18,114,96,1.0,0,BBAA
3.8.10,Windows,93022,10:16:33,1,0,SART,1,go,129,129,25,90,go,9,10ptc,space,1,1028,1028,3,Go Success,0,1,14,18,115,97,1.0,0,BBAA
3.8.10,Windows,93022,10:16:33,1,0,SART,1,nogo,130,130,25,90,nogo,3,13ptc,space,0,1031,1031,3,NoGo Failure,0,1,15,18,115,97,1.0,0,BBAA
3.8.10,Windows,93022,10:16:33,1,0,SART,1,go,131,131,25,90,go,2,16ptc,0,0,0,0,0,Omission,0,1,15,19,116,97,1.0,0,BBAA
3.8.10,Windows,93022,10:16:33,1,0,SART,1,go,132,132,25,90,go,2,19ptc,0,0,0,0,0,Omission,0,1,15,20,117,97,1.0,0,BBAA
3.8.10,Windows,93022,10:16:33,1,0,SART,1,go,133,133,25,90,go,5,10ptc,space,1,704,704,3,Go Success,0,1,15,20,118,98,0.0,0,BBAA
3.8.10,Windows,93022,10:16:33,1,0,SART,1,go,134,134,25,90,go,9,21ptc,space,1,705,705,3,Go Success,0,1,15,20,119,99,0.0,0,BBAA
3.8.10,Windows,93022,10:16:33,1,0,SART,1,go,135,135,25,90,go,9,13ptc,0,0,0,0,0,Omission,0,1,15,21,120,99,0.0,0,BBAA
3.8.10,Windows,93022,10:16:33,1,0,SART,1,go,136,136,25,90,go,5,19ptc,space,1,1150,1150,3,Go Success,0,1,15,21,121,100,0.0,0,BBAA
3.8.10,Windows,93022,10:16:33,1,0,SART,1,go,137,137,25,90,go,7,16ptc,0,0,0,0,0,Omission,0,1,15,22,122,100,0.0,0,BBAA
3.8.10,Windows,93022,10:16:33,1,0,SART,1,go,138,138,25,90,go,4,21ptc,space,1,704,704,3,Go Success,0,1,15,22,123,101,0.0,0,BBAA
3.8.10,Windows,93022,10:16:33,1,0,SART,1,go,139,139,25,90,go,2,13ptc,space,1,1070,1070,3,Go Success,0,1,15,22,124,102,0.0,0,BBAA
3.8.10,Windows,93022,10:16:33,1,0,SART,1,go,140,140,25,90,go,8,10ptc,space,1,979,979,3,Go Success,0,1,15,22,125,103,0.0,0,BBAA
3.8.10,Windows,93022,10:16:33,1,0,SART,1,go,141,141,25,90,go,7,10ptc,space,1,983,983,3,Go Success,0,1,15,22,126,104,0.0,0,BBAA
3.8.10,Windows,93022,10:16:33,1,0,SART,1,go,142,142,25,90,go,4,13ptc,space,1,959,959,3,Go Success,0,1,15,22,127,105,0.0,0,BBAA
3.8.10,Windows,93022,10:16:33,1,0,SART,1,go,143,143,25,90,go,7,19ptc,space,1,959,959,3,Go Success,0,1,15,22,128,106,0.0,0,BBAA
3.8.10,Windows,93022,10:16:33,1,0,SART,1,go,144,144,25,90,go,4,16ptc,space,1,1044,1044,3,Go Success,0,1,15,22,129,107,0.0,0,BBAA
3.8.10,Windows,93022,10:16:33,1,0,SART,1,go,145,145,25,90,go,4,21ptc,space,1,1070,1070,3,Go Success,0,1,15,22,130,108,0.0,0,BBAA
3.8.10,Windows,93022,10:16:33,1,0,SART,1,go,146,146,25,90,go,9,10ptc,space,1,1000,1000,3,Go Success,0,1,15,22,131,109,0.0,0,BBAA
3.8.10,Windows,93022,10:16:33,1,0,SART,1,go,147,147,25,90,go,1,13ptc,space,1,973,973,3,Go Success,0,1,15,22,132,110,0.0,0,BBAA
3.8.10,Windows,93022,10:16:33,1,0,SART,1,go,148,148,25,90,go,7,16ptc,space,1,960,960,3,Go Success,0,1,15,22,133,111,0.0,0,BBAA
3.8.10,Windows,93022,10:16:33,1,0,SART,1,go,149,149,25,90,go,4,19ptc,space,1,988,988,3,Go Success,0,1,15,22,134,112,1.0,0,BBAA
3.8.10,Windows,93022,10:16:33,1,0,SART,1,go,150,150,25,90,go,9,21ptc,space,1,955,955,3,Go Success,0,1,15,22,135,113,1.0,0,BBAA
3.8.10,Windows,93022,10:16:33,1,0,SART,1,nogo,151,151,25,90,nogo,3,19ptc,space,0,1137,1137,3,NoGo Failure,0,1,16,22,135,113,1.0,0,BBAA
3.8.10,Windows,93022,10:16:33,1,0,SART,1,go,152,152,25,90,go,8,21ptc,space,1,1049,1049,3,Go Success,0,1,16,22,136,114,1.0,0,BBAA
3.8.10,Windows,93022,10:16:33,1,0,SART,1,go,153,153,25,90,go,1,10ptc,space,1,1121,1121,3,Go Success,0,1,16,22,137,115,1.0,0,BBAA
3.8.10,Windows,93022,10:16:33,1,0,SART,1,go,154,154,25,90,go,5,16ptc,space,1,1095,1095,3,Go Success,0,1,16,22,138,116,1.0,0,BBAA
3.8.10,Windows,93022,10:16:33,1,0,SART,1,go,155,155,25,90,go,8,13ptc,space,1,1079,1079,3,Go Success,0,1,16,22,139,117,1.0,0,BBAA
3.8.10,Windows,93022,10:16:33,1,0,SART,1,nogo,156,156,25,90,nogo,3,10ptc,space,0,1138,1138,3,NoGo Failure,0,1,17,22,139,117,1.0,0,BBAA
3.8.10,Windows,93022,10:16:33,1,0,SART,1,go,157,157,25,90,go,2,13ptc,0,0,0,0,0,Omission,0,1,17,23,140,117,1.0,0,BBAA
3.8.10,Windows,93022,10:16:33,1,0,SART,1,go,158,158,25,90,go,6,21ptc,space,1,703,703,3,Go Success,0,1,17,23,141,118,1.0,0,BBAA
3.8.10,Windows,93022,10:16:33,1,0,SART,1,go,159,159,25,90,go,6,16ptc,space,1,1034,1034,3,Go Success,0,1,17,23,142,119,1.0,0,BBAA
3.8.10,Windows,93022,10:16:33,1,0,SART,1,nogo,160,160,25,90,nogo,3,19ptc,space,0,956,956,3,NoGo Failure,0,1,18,23,142,119,1.0,0,BBAA
3.8.10,Windows,93022,10:16:33,1,0,SART,1,go,161,161,25,90,go,8,21ptc,space,1,1012,1012,3,Go Success,0,1,18,23,143,120,1.0,0,BBAA
3.8.10,Windows,93022,10:16:33,1,0,SART,1,go,162,162,25,90,go,1,16ptc,space,1,1081,1081,3,Go Success,0,1,18,23,144,121,1.0,0,BBAA
3.8.10,Windows,93022,10:16:33,1,0,SART,1,go,163,163,25,90,go,9,13ptc,space,1,986,986,3,Go Success,0,1,18,23,145,122,0.0,0,BBAA
3.8.10,Windows,93022,10:16:33,1,0,SART,1,go,164,164,25,90,go,8,19ptc,space,1,1110,1110,3,Go Success,0,1,18,23,146,123,0.0,0,BBAA
3.8.10,Windows,93022,10:16:33,1,0,SART,1,go,165,165,25,90,go,9,10ptc,space,1,1042,1042,3,Go Success,0,1,18,23,147,124,0.0,0,BBAA
3.8.10,Windows,93022,10:16:33,1,0,SART,1,go,166,166,25,90,go,9,21ptc,space,1,994,994,3,Go Success,0,1,18,23,148,125,0.0,0,BBAA
3.8.10,Windows,93022,10:16:33,1,0,SART,1,go,167,167,25,90,go,7,19ptc,space,1,1156,1156,3,Go Success,0,1,18,23,149,126,0.0,0,BBAA
3.8.10,Windows,93022,10:16:33,1,0,SART,1,go,168,168,25,90,go,5,10ptc,space,1,1044,1044,3,Go Success,0,1,18,23,150,127,1.0,0,BBAA
3.8.10,Windows,93022,10:16:33,1,0,SART,1,go,169,169,25,90,go,2,16ptc,space,1,1050,1050,3,Go Success,0,1,18,23,151,128,1.0,0,BBAA
3.8.10,Windows,93022,10:16:33,1,0,SART,1,nogo,170,170,25,90,nogo,3,13ptc,space,0,1152,1152,3,NoGo Failure,0,1,19,23,151,128,1.0,0,BBAA
3.8.10,Windows,93022,10:16:33,1,0,SART,1,go,171,171,25,90,go,4,13ptc,space,1,1002,1002,3,Go Success,0,1,19,23,152,129,1.0,0,BBAA
3.8.10,Windows,93022,10:16:33,1,0,SART,1,nogo,172,172,25,90,nogo,3,16ptc,space,0,1155,1155,3,NoGo Failure,0,1,20,23,152,129,1.0,0,BBAA
3.8.10,Windows,93022,10:16:33,1,0,SART,1,go,173,173,25,90,go,1,21ptc,space,1,1144,1144,3,Go Success,0,1,20,23,153,130,1.0,0,BBAA
3.8.10,Windows,93022,10:16:33,1,0,SART,1,go,174,174,25,90,go,7,10ptc,0,0,0,0,0,Omission,0,1,20,24,154,130,1.0,0,BBAA
3.8.10,Windows,93022,10:16:33,1,0,SART,1,go,175,175,25,90,go,8,19ptc,0,0,0,0,0,Omission,0,1,20,25,155,130,1.0,0,BBAA
3.8.10,Windows,93022,10:16:33,1,0,SART,1,nogo,176,176,25,90,nogo,3,21ptc,space,0,702,702,3,NoGo Failure,0,1,21,25,155,130,1.0,0,BBAA
3.8.10,Windows,93022,10:16:33,1,0,SART,1,go,177,177,25,90,go,4,10ptc,space,1,1147,1147,3,Go Success,0,1,21,25,156,131,1.0,0,BBAA
3.8.10,Windows,93022,10:16:33,1,0,SART,1,nogo,178,178,25,90,nogo,3,16ptc,space,0,1104,1104,3,NoGo Failure,0,1,22,25,156,131,1.0,0,BBAA
3.8.10,Windows,93022,10:16:33,1,0,SART,1,go,179,179,25,90,go,5,13ptc,0,0,0,0,0,Omission,0,1,22,26,157,131,1.0,0,BBAA
3.8.10,Windows,93022,10:16:33,1,0,SART,1,go,180,180,25,90,go,6,19ptc,space,1,702,702,3,Go Success,0,1,22,26,158,132,1.0,0,BBAA
3.8.10,Windows,93022,10:16:33,1,0,SART,1,go,181,181,25,90,go,1,10ptc,space,1,703,703,3,Go Success,0,1,22,26,159,133,1.0,0,BBAA
3.8.10,Windows,93022,10:16:33,1,0,SART,1,go,182,182,25,90,go,6,19ptc,space,1,1075,1075,3,Go Success,0,1,22,26,160,134,1.0,0,BBAA
3.8.10,Windows,93022,10:16:33,1,0,SART,1,nogo,183,183,25,90,nogo,3,13ptc,0,1,0,0,0,NoGo Success,0,2,23,26,160,134,1.0,0,BBAA
3.8.10,Windows,93022,10:16:33,1,0,SART,1,go,184,184,25,90,go,5,21ptc,space,1,957,957,3,Go Success,0,2,23,26,161,135,1.0,0,BBAA
3.8.10,Windows,93022,10:16:33,1,0,SART,1,go,185,185,25,90,go,7,16ptc,space,1,1074,1074,3,Go Success,0,2,23,26,162,136,1.0,0,BBAA
3.8.10,Windows,93022,10:16:33,1,0,SART,1,go,186,186,25,90,go,9,10ptc,0,0,0,0,0,Omission,0,2,23,27,163,136,0.0,0,BBAA
3.8.10,Windows,93022,10:16:33,1,0,SART,1,go,187,187,25,90,go,7,21ptc,space,1,1104,1104,3,Go Success,0,2,23,27,164,137,0.0,0,BBAA
3.8.10,Windows,93022,10:16:33,1,0,SART,1,go,188,188,25,90,go,5,19ptc,space,1,994,994,3,Go Success,0,2,23,27,165,138,0.0,0,BBAA
3.8.10,Windows,93022,10:16:33,1,0,SART,1,go,189,189,25,90,go,7,16ptc,space,1,1135,1135,3,Go Success,0,2,23,27,166,139,0.0,0,BBAA
3.8.10,Windows,93022,10:16:33,1,0,SART,1,go,190,190,25,90,go,9,13ptc,space,1,961,961,3,Go Success,0,2,23,27,167,140,0.0,0,BBAA
3.8.10,Windows,93022,10:16:33,1,0,SART,1,go,191,191,25,90,go,5,13ptc,0,0,0,0,0,Omission,0,2,23,28,168,140,0.0,0,BBAA
3.8.10,Windows,93022,10:16:33,1,0,SART,1,go,192,192,25,90,go,8,10ptc,space,1,707,707,3,Go Success,0,2,23,28,169,141,0.0,0,BBAA
3.8.10,Windows,93022,10:16:33,1,0,SART,1,go,193,193,25,90,go,5,19ptc,space,1,1115,1115,3,Go Success,0,2,23,28,170,142,0.0,0,BBAA
3.8.10,Windows,93022,10:16:33,1,0,SART,1,go,194,194,25,90,go,9,21ptc,space,1,1141,1141,3,Go Success,0,2,23,28,171,143,0.0,0,BBAA
3.8.10,Windows,93022,10:16:33,1,0,SART,1,go,195,195,25,90,go,7,16ptc,0,0,0,0,0,Omission,0,2,23,29,172,143,0.0,0,BBAA
3.8.10,Windows,93022,10:16:33,1,0,SART,1,go,196,196,25,90,go,1,21ptc,space,1,708,708,3,Go Success,0,2,23,29,173,144,0.0,0,BBAA
3.8.10,Windows,93022,10:16:33,1,0,SART,1,go,197,197,25,90,go,2,13ptc,0,0,0,0,0,Omission,0,2,23,30,174,144,0.0,0,BBAA
3.8.10,Windows,93022,10:16:33,1,0,SART,1,go,198,198,25,90,go,7,19ptc,space,1,706,706,3,Go Success,0,2,23,30,175,145,0.0,0,BBAA
3.8.10,Windows,93022,10:16:33,1,0,SART,1,go,199,199,25,90,go,1,10ptc,space,1,1112,1112,3,Go Success,0,2,23,30,176,146,0.0,0,BBAA
3.8.10,Windows,93022,10:16:33,1,0,SART,1,go,200,200,25,90,go,4,16ptc,0,0,0,0,0,Omission,0,2,23,31,177,146,1.0,0,BBAA
3.8.10,Windows,93022,10:16:33,1,0,SART,1,go,201,201,25,90,go,7,10ptc,space,1,1086,1086,3,Go Success,0,2,23,31,178,147,1.0,0,BBAA
3.8.10,Windows,93022,10:16:33,1,0,SART,1,nogo,202,202,25,90,nogo,3,21ptc,space,0,1141,1141,3,NoGo Failure,0,2,24,31,178,147,1.0,0,BBAA
3.8.10,Windows,93022,10:16:33,1,0,SART,1,go,203,203,25,90,go,4,19ptc,space,1,955,955,3,Go Success,0,2,24,31,179,148,1.0,0,BBAA
3.8.10,Windows,93022,10:16:33,1,0,SART,1,go,204,204,25,90,go,9,16ptc,space,1,1154,1154,3,Go Success,0,2,24,31,180,149,1.0,0,BBAA
3.8.10,Windows,93022,10:16:33,1,0,SART,1,go,205,205,25,90,go,8,13ptc,space,1,1069,1069,3,Go Success,0,2,24,31,181,150,0.0,0,BBAA
3.8.10,Windows,93022,10:16:33,1,0,SART,1,go,206,206,25,90,go,6,19ptc,space,1,1043,1043,3,Go Success,0,2,24,31,182,151,0.0,0,BBAA
3.8.10,Windows,93022,10:16:33,1,0,SART,1,go,207,207,25,90,go,6,13ptc,space,1,979,979,3,Go Success,0,2,24,31,183,152,0.0,0,BBAA
3.8.10,Windows,93022,10:16:33,1,0,SART,1,go,208,208,25,90,go,8,10ptc,space,1,962,962,3,Go Success,0,2,24,31,184,153,0.0,0,BBAA
3.8.10,Windows,93022,10:16:33,1,0,SART,1,go,209,209,25,90,go,9,21ptc,space,1,955,955,3,Go Success,0,2,24,31,185,154,0.0,0,BBAA
3.8.10,Windows,93022,10:16:33,1,0,SART,1,go,210,210,25,90,go,1,16ptc,space,1,1024,1024,3,Go Success,0,2,24,31,186,155,0.0,0,BBAA
3.8.10,Windows,93022,10:16:33,1,0,SART,1,go,211,211,25,90,go,1,21ptc,space,1,1036,1036,3,Go Success,0,2,24,31,187,156,1.0,0,BBAA
3.8.10,Windows,93022,10:16:33,1,0,SART,1,go,212,212,25,90,go,4,19ptc,space,1,1020,1020,3,Go Success,0,2,24,31,188,157,1.0,0,BBAA
3.8.10,Windows,93022,10:16:33,1,0,SART,1,nogo,213,213,25,90,nogo,3,10ptc,space,0,1048,1048,3,NoGo Failure,0,2,25,31,188,157,1.0,0,BBAA
3.8.10,Windows,93022,10:16:33,1,0,SART,1,go,214,214,25,90,go,1,13ptc,space,1,987,987,3,Go Success,0,2,25,31,189,158,1.0,0,BBAA
3.8.10,Windows,93022,10:16:33,1,0,SART,1,go,215,215,25,90,go,9,16ptc,space,1,956,956,3,Go Success,0,2,25,31,190,159,1.0,0,BBAA
3.8.10,Windows,93022,10:16:33,1,0,SART,1,go,216,216,25,90,go,8,19ptc,space,1,890,890,3,Go Success,0,2,25,31,191,160,0.0,0,BBAA
3.8.10,Windows,93022,10:16:33,1,0,SART,1,go,217,217,25,90,go,8,16ptc,space,1,854,854,3,Go Success,0,2,25,31,192,161,0.0,0,BBAA
3.8.10,Windows,93022,10:16:33,1,0,SART,1,go,218,218,25,90,go,1,21ptc,space,1,975,975,3,Go Success,0,2,25,31,193,162,0.0,0,BBAA
3.8.10,Windows,93022,10:16:33,1,0,SART,1,go,219,219,25,90,go,6,13ptc,space,1,846,846,3,Go Success,0,2,25,31,194,163,0.0,0,BBAA
3.8.10,Windows,93022,10:16:33,1,0,SART,1,go,220,220,25,90,go,7,10ptc,space,1,958,958,3,Go Success,0,2,25,31,195,164,0.0,0,BBAA
3.8.10,Windows,93022,10:16:33,1,0,SART,1,go,221,221,25,90,go,6,16ptc,space,1,893,893,3,Go Success,0,2,25,31,196,165,0.0,0,BBAA
3.8.10,Windows,93022,10:16:33,1,0,SART,1,go,222,222,25,90,go,9,21ptc,space,1,967,967,3,Go Success,0,2,25,31,197,166,0.0,0,BBAA
3.8.10,Windows,93022,10:16:33,1,0,SART,1,go,223,223,25,90,go,4,13ptc,space,1,900,900,3,Go Success,0,2,25,31,198,167,0.0,0,BBAA
3.8.10,Windows,93022,10:16:33,1,0,SART,1,go,224,224,25,90,go,8,10ptc,space,1,976,976,3,Go Success,0,2,25,31,199,168,0.0,0,BBAA
3.8.10,Windows,93022,10:16:33,1,0,SART,1,go,225,225,25,90,go,4,19ptc,space,1,989,989,3,Go Success,0,2,25,31,200,169,0.0,0,BBAA
3.8.10,Windows,93022,10:16:33,1,0,SART,2,go,1,226,25,90,go,2,21ptc,0,0,0,0,0,Omission,0,2,25,32,201,169,0.0,0,BBAA
3.8.10,Windows,93022,10:16:33,1,0,SART,2,go,2,227,25,90,go,9,16ptc,0,0,0,0,0,Omission,0,2,25,33,202,169,0.0,0,BBAA
3.8.10,Windows,93022,10:16:33,1,0,SART,2,go,3,228,25,90,go,2,10ptc,0,0,0,0,0,Omission,0,2,25,34,203,169,0.0,0,BBAA
3.8.10,Windows,93022,10:16:33,1,0,SART,2,go,4,229,25,90,go,7,13ptc,0,0,0,0,0,Omission,0,2,25,35,204,169,0.0,0,BBAA
3.8.10,Windows,93022,10:16:33,1,0,SART,2,go,5,230,25,90,go,4,19ptc,0,0,0,0,0,Omission,0,2,25,36,205,169,0.0,0,BBAA
3.8.10,Windows,93022,10:16:33,1,0,SART,2,go,6,231,25,90,go,6,10ptc,0,0,0,0,0,Omission,0,2,25,37,206,169,0.0,0,BBAA
3.8.10,Windows,93022,10:16:33,1,0,SART,2,go,7,232,25,90,go,7,13ptc,0,0,0,0,0,Omission,0,2,25,38,207,169,0.0,0,BBAA
3.8.10,Windows,93022,10:16:33,1,0,SART,2,go,8,233,25,90,go,9,16ptc,0,0,0,0,0,Omission,0,2,25,39,208,169,0.0,0,BBAA
3.8.10,Windows,93022,10:16:33,1,0,SART,2,go,9,234,25,90,go,6,21ptc,0,0,0,0,0,Omission,0,2,25,40,209,169,1.0,0,BBAA
3.8.10,Windows,93022,10:16:33,1,0,SART,2,go,10,235,25,90,go,9,19ptc,0,0,0,0,0,Omission,0,2,25,41,210,169,1.0,0,BBAA
3.8.10,Windows,93022,10:16:33,1,0,SART,2,nogo,11,236,25,90,nogo,3,16ptc,0,1,0,0,0,NoGo Success,0,3,26,41,210,169,1.0,0,BBAA
3.8.10,Windows,93022,10:16:33,1,0,SART,2,go,12,237,25,90,go,4,21ptc,0,0,0,0,0,Omission,0,3,26,42,211,169,1.0,0,BBAA
3.8.10,Windows,93022,10:16:33,1,0,SART,2,go,13,238,25,90,go,1,13ptc,0,0,0,0,0,Omission,0,3,26,43,212,169,1.0,0,BBAA
3.8.10,Windows,93022,10:16:33,1,0,SART,2,go,14,239,25,90,go,5,10ptc,0,0,0,0,0,Omission,0,3,26,44,213,169,0.0,0,BBAA
3.8.10,Windows,93022,10:16:33,1,0,SART,2,go,15,240,25,90,go,1,19ptc,0,0,0,0,0,Omission,0,3,26,45,214,169,1.0,0,BBAA
3.8.10,Windows,93022,10:16:33,1,0,SART,2,go,16,241,25,90,go,1,13ptc,0,0,0,0,0,Omission,0,3,26,46,215,169,1.0,0,BBAA
3.8.10,Windows,93022,10:16:33,1,0,SART,2,nogo,17,242,25,90,nogo,3,19ptc,0,1,0,0,0,NoGo Success,0,4,27,46,215,169,1.0,0,BBAA
3.8.10,Windows,93022,10:16:33,1,0,SART,2,go,18,243,25,90,go,7,21ptc,0,0,0,0,0,Omission,0,4,27,47,216,169,1.0,0,BBAA
3.8.10,Windows,93022,10:16:33,1,0,SART,2,nogo,19,244,25,90,nogo,3,16ptc,0,1,0,0,0,NoGo Success,0,5,28,47,216,169,1.0,0,BBAA
3.8.10,Windows,93022,10:16:33,1,0,SART,2,go,20,245,25,90,go,5,10ptc,0,0,0,0,0,Omission,0,5,28,48,217,169,1.0,0,BBAA
3.8.10,Windows,93022,10:16:33,1,0,SART,2,go,21,246,25,90,go,6,10ptc,0,0,0,0,0,Omission,0,5,28,49,218,169,1.0,0,BBAA
3.8.10,Windows,93022,10:16:33,1,0,SART,2,go,22,247,25,90,go,8,21ptc,0,0,0,0,0,Omission,0,5,28,50,219,169,0.0,0,BBAA
3.8.10,Windows,93022,10:16:33,1,0,SART,2,go,23,248,25,90,go,8,13ptc,0,0,0,0,0,Omission,0,5,28,51,220,169,0.0,0,BBAA
3.8.10,Windows,93022,10:16:33,1,0,SART,2,go,24,249,25,90,go,1,19ptc,0,0,0,0,0,Omission,0,5,28,52,221,169,0.0,0,BBAA
3.8.10,Windows,93022,10:16:33,1,0,SART,2,go,25,250,25,90,go,1,16ptc,0,0,0,0,0,Omission,0,5,28,53,222,169,0.0,0,BBAA
3.8.10,Windows,93022,10:16:33,1,0,SART,2,go,26,251,25,90,go,6,13ptc,0,0,0,0,0,Omission,0,5,28,54,223,169,0.0,0,BBAA
3.8.10,Windows,93022,10:16:33,1,0,SART,2,go,27,252,25,90,go,5,19ptc,0,0,0,0,0,Omission,0,5,28,55,224,169,0.0,0,BBAA
3.8.10,Windows,93022,10:16:33,1,0,SART,2,go,28,253,25,90,go,1,16ptc,0,0,0,0,0,Omission,0,5,28,56,225,169,0.0,0,BBAA
3.8.10,Windows,93022,10:16:33,1,0,SART,2,go,29,254,25,90,go,2,10ptc,0,0,0,0,0,Omission,0,5,28,57,226,169,0.0,0,BBAA
3.8.10,Windows,93022,10:16:33,1,0,SART,2,go,30,255,25,90,go,4,21ptc,0,0,0,0,0,Omission,0,5,28,58,227,169,0.0,0,BBAA
3.8.10,Windows,93022,10:16:33,1,0,SART,2,go,31,256,25,90,go,8,21ptc,0,0,0,0,0,Omission,0,5,28,59,228,169,0.0,0,BBAA
3.8.10,Windows,93022,10:16:33,1,0,SART,2,go,32,257,25,90,go,7,10ptc,0,0,0,0,0,Omission,0,5,28,60,229,169,0.0,0,BBAA
3.8.10,Windows,93022,10:16:33,1,0,SART,2,go,33,258,25,90,go,6,13ptc,0,0,0,0,0,Omission,0,5,28,61,230,169,0.0,0,BBAA
3.8.10,Windows,93022,10:16:33,1,0,SART,2,go,34,259,25,90,go,1,16ptc,0,0,0,0,0,Omission,0,5,28,62,231,169,0.0,0,BBAA
3.8.10,Windows,93022,10:16:33,1,0,SART,2,go,35,260,25,90,go,7,19ptc,0,0,0,0,0,Omission,0,5,28,63,232,169,0.0,0,BBAA
3.8.10,Windows,93022,10:16:33,1,0,SART,2,go,36,261,25,90,go,9,21ptc,0,0,0,0,0,Omission,0,5,28,64,233,169,0.0,0,BBAA
3.8.10,Windows,93022,10:16:33,1,0,SART,2,go,37,262,25,90,go,6,13ptc,0,0,0,0,0,Omission,0,5,28,65,234,169,0.0,0,BBAA
3.8.10,Windows,93022,10:16:33,1,0,SART,2,go,38,263,25,90,go,4,16ptc,0,0,0,0,0,Omission,0,5,28,66,235,169,0.0,0,BBAA
3.8.10,Windows,93022,10:16:33,1,0,SART,2,go,39,264,25,90,go,5,19ptc,0,0,0,0,0,Omission,0,5,28,67,236,169,1.0,0,BBAA
3.8.10,Windows,93022,10:16:33,1,0,SART,2,go,40,265,25,90,go,4,10ptc,0,0,0,0,0,Omission,0,5,28,68,237,169,1.0,0,BBAA
3.8.10,Windows,93022,10:16:33,1,0,SART,2,nogo,41,266,25,90,nogo,3,16ptc,0,1,0,0,0,NoGo Success,0,6,29,68,237,169,1.0,0,BBAA
3.8.10,Windows,93022,10:16:33,1,0,SART,2,go,42,267,25,90,go,1,13ptc,0,0,0,0,0,Omission,0,6,29,69,238,169,1.0,0,BBAA
3.8.10,Windows,93022,10:16:33,1,0,SART,2,go,43,268,25,90,go,9,21ptc,0,0,0,0,0,Omission,0,6,29,70,239,169,1.0,0,BBAA
3.8.10,Windows,93022,10:16:33,1,0,SART,2,go,44,269,25,90,go,9,19ptc,0,0,0,0,0,Omission,0,6,29,71,240,169,0.0,0,BBAA
3.8.10,Windows,93022,10:16:33,1,0,SART,2,go,45,270,25,90,go,9,10ptc,0,0,0,0,0,Omission,0,6,29,72,241,169,0.0,0,BBAA
3.8.10,Windows,93022,10:16:33,1,0,SART,2,go,46,271,25,90,go,6,21ptc,0,0,0,0,0,Omission,0,6,29,73,242,169,0.0,0,BBAA
3.8.10,Windows,93022,10:16:33,1,0,SART,2,go,47,272,25,90,go,2,19ptc,0,0,0,0,0,Omission,0,6,29,74,243,169,0.0,0,BBAA
3.8.10,Windows,93022,10:16:33,1,0,SART,2,go,48,273,25,90,go,1,10ptc,0,0,0,0,0,Omission,0,6,29,75,244,169,0.0,0,BBAA
3.8.10,Windows,93022,10:16:33,1,0,SART,2,go,49,274,25,90,go,2,13ptc,0,0,0,0,0,Omission,0,6,29,76,245,169,1.0,0,BBAA
3.8.10,Windows,93022,10:16:33,1,0,SART,2,go,50,275,25,90,go,4,16ptc,0,0,0,0,0,Omission,0,6,29,77,246,169,1.0,0,BBAA
3.8.10,Windows,93022,10:16:33,1,0,SART,2,nogo,51,276,25,90,nogo,3,10ptc,0,1,0,0,0,NoGo Success,0,7,30,77,246,169,1.0,0,BBAA
3.8.10,Windows,93022,10:16:33,1,0,SART,2,go,52,277,25,90,go,4,13ptc,0,0,0,0,0,Omission,0,7,30,78,247,169,1.0,0,BBAA
3.8.10,Windows,93022,10:16:33,1,0,SART,2,go,53,278,25,90,go,6,21ptc,0,0,0,0,0,Omission,0,7,30,79,248,169,1.0,0,BBAA
3.8.10,Windows,93022,10:16:33,1,0,SART,2,nogo,54,279,25,90,nogo,3,19ptc,0,1,0,0,0,NoGo Success,0,8,31,79,248,169,1.0,0,BBAA
3.8.10,Windows,93022,10:16:33,1,0,SART,2,go,55,280,25,90,go,8,16ptc,0,0,0,0,0,Omission,0,8,31,80,249,169,1.0,0,BBAA
3.8.10,Windows,93022,10:16:33,1,0,SART,2,go,56,281,25,90,go,9,21ptc,0,0,0,0,0,Omission,0,8,31,81,250,169,1.0,0,BBAA
3.8.10,Windows,93022,10:16:33,1,0,SART,2,go,57,282,25,90,go,8,19ptc,0,0,0,0,0,Omission,0,8,31,82,251,169,0.0,0,BBAA
3.8.10,Windows,93022,10:16:33,1,0,SART,2,go,58,283,25,90,go,1,10ptc,0,0,0,0,0,Omission,0,8,31,83,252,169,0.0,0,BBAA
3.8.10,Windows,93022,10:16:33,1,0,SART,2,go,59,284,25,90,go,7,16ptc,0,0,0,0,0,Omission,0,8,31,84,253,169,0.0,0,BBAA
3.8.10,Windows,93022,10:16:33,1,0,SART,2,go,60,285,25,90,go,4,13ptc,0,0,0,0,0,Omission,0,8,31,85,254,169,0.0,0,BBAA
3.8.10,Windows,93022,10:16:33,1,0,SART,2,go,61,286,25,90,go,1,21ptc,0,0,0,0,0,Omission,0,8,31,86,255,169,0.0,0,BBAA
3.8.10,Windows,93022,10:16:33,1,0,SART,2,go,62,287,25,90,go,8,16ptc,0,0,0,0,0,Omission,0,8,31,87,256,169,0.0,0,BBAA
3.8.10,Windows,93022,10:16:33,1,0,SART,2,go,63,288,25,90,go,4,13ptc,0,0,0,0,0,Omission,0,8,31,88,257,169,1.0,0,BBAA
3.8.10,Windows,93022,10:16:33,1,0,SART,2,go,64,289,25,90,go,8,19ptc,0,0,0,0,0,Omission,0,8,31,89,258,169,1.0,0,BBAA
3.8.10,Windows,93022,10:16:33,1,0,SART,2,nogo,65,290,25,90,nogo,3,10ptc,0,1,0,0,0,NoGo Success,0,9,32,89,258,169,1.0,0,BBAA
3.8.10,Windows,93022,10:16:33,1,0,SART,2,go,66,291,25,90,go,7,13ptc,0,0,0,0,0,Omission,0,9,32,90,259,169,1.0,0,BBAA
3.8.10,Windows,93022,10:16:33,1,0,SART,2,go,67,292,25,90,go,4,16ptc,0,0,0,0,0,Omission,0,9,32,91,260,169,1.0,0,BBAA
3.8.10,Windows,93022,10:16:33,1,0,SART,2,go,68,293,25,90,go,7,21ptc,0,0,0,0,0,Omission,0,9,32,92,261,169,0.0,0,BBAA
3.8.10,Windows,93022,10:16:33,1,0,SART,2,go,69,294,25,90,go,5,19ptc,0,0,0,0,0,Omission,0,9,32,93,262,169,0.0,0,BBAA
3.8.10,Windows,93022,10:16:33,1,0,SART,2,go,70,295,25,90,go,6,10ptc,0,0,0,0,0,Omission,0,9,32,94,263,169,0.0,0,BBAA
3.8.10,Windows,93022,10:16:33,1,0,SART,2,go,71,296,25,90,go,5,19ptc,0,0,0,0,0,Omission,0,9,32,95,264,169,0.0,0,BBAA
3.8.10,Windows,93022,10:16:33,1,0,SART,2,go,72,297,25,90,go,5,13ptc,0,0,0,0,0,Omission,0,9,32,96,265,169,0.0,0,BBAA
3.8.10,Windows,93022,10:16:33,1,0,SART,2,go,73,298,25,90,go,5,10ptc,0,0,0,0,0,Omission,0,9,32,97,266,169,1.0,0,BBAA
3.8.10,Windows,93022,10:16:33,1,0,SART,2,go,74,299,25,90,go,9,16ptc,0,0,0,0,0,Omission,0,9,32,98,267,169,1.0,0,BBAA
3.8.10,Windows,93022,10:16:33,1,0,SART,2,nogo,75,300,25,90,nogo,3,21ptc,0,1,0,0,0,NoGo Success,0,10,33,98,267,169,1.0,0,BBAA
3.8.10,Windows,93022,10:16:33,1,0,SART,2,go,76,301,25,90,go,5,21ptc,0,0,0,0,0,Omission,0,10,33,99,268,169,1.0,0,BBAA
3.8.10,Windows,93022,10:16:33,1,0,SART,2,go,77,302,25,90,go,2,16ptc,0,0,0,0,0,Omission,0,10,33,100,269,169,1.0,0,BBAA
3.8.10,Windows,93022,10:16:33,1,0,SART,2,go,78,303,25,90,go,9,13ptc,0,0,0,0,0,Omission,0,10,33,101,270,169,0.0,0,BBAA
3.8.10,Windows,93022,10:16:33,1,0,SART,2,go,79,304,25,90,go,8,19ptc,0,0,0,0,0,Omission,0,10,33,102,271,169,0.0,0,BBAA
3.8.10,Windows,93022,10:16:33,1,0,SART,2,go,80,305,25,90,go,8,10ptc,0,0,0,0,0,Omission,0,10,33,103,272,169,0.0,0,BBAA
3.8.10,Windows,93022,10:16:33,1,0,SART,2,go,81,306,25,90,go,1,21ptc,0,0,0,0,0,Omission,0,10,33,104,273,169,0.0,0,BBAA
3.8.10,Windows,93022,10:16:33,1,0,SART,2,go,82,307,25,90,go,9,13ptc,0,0,0,0,0,Omission,0,10,33,105,274,169,0.0,0,BBAA
3.8.10,Windows,93022,10:16:33,1,0,SART,2,go,83,308,25,90,go,2,19ptc,0,0,0,0,0,Omission,0,10,33,106,275,169,0.0,0,BBAA
3.8.10,Windows,93022,10:16:33,1,0,SART,2,go,84,309,25,90,go,1,10ptc,0,0,0,0,0,Omission,0,10,33,107,276,169,0.0,0,BBAA
3.8.10,Windows,93022,10:16:33,1,0,SART,2,go,85,310,25,90,go,4,16ptc,0,0,0,0,0,Omission,0,10,33,108,277,169,0.0,0,BBAA
3.8.10,Windows,93022,10:16:33,1,0,SART,2,go,86,311,25,90,go,1,16ptc,0,0,0,0,0,Omission,0,10,33,109,278,169,1.0,0,BBAA
3.8.10,Windows,93022,10:16:33,1,0,SART,2,go,87,312,25,90,go,1,21ptc,0,0,0,0,0,Omission,0,10,33,110,279,169,1.0,0,BBAA
3.8.10,Windows,93022,10:16:33,1,0,SART,2,nogo,88,313,25,90,nogo,3,19ptc,0,1,0,0,0,NoGo Success,0,11,34,110,279,169,1.0,0,BBAA
3.8.10,Windows,93022,10:16:33,1,0,SART,2,go,89,314,25,90,go,8,13ptc,0,0,0,0,0,Omission,0,11,34,111,280,169,1.0,0,BBAA
3.8.10,Windows,93022,10:16:33,1,0,SART,2,go,90,315,25,90,go,4,10ptc,0,0,0,0,0,Omission,0,11,34,112,281,169,1.0,0,BBAA
3.8.10,Windows,93022,10:16:33,1,0,SART,2,go,91,316,25,90,go,4,21ptc,0,0,0,0,0,Omission,0,11,34,113,282,169,1.0,0,BBAA
3.8.10,Windows,93022,10:16:33,1,0,SART,2,go,92,317,25,90,go,5,10ptc,0,0,0,0,0,Omission,0,11,34,114,283,169,1.0,0,BBAA
3.8.10,Windows,93022,10:16:33,1,0,SART,2,nogo,93,318,25,90,nogo,3,16ptc,0,1,0,0,0,NoGo Success,0,12,35,114,283,169,1.0,0,BBAA
3.8.10,Windows,93022,10:16:33,1,0,SART,2,go,94,319,25,90,go,5,13ptc,0,0,0,0,0,Omission,0,12,35,115,284,169,1.0,0,BBAA
3.8.10,Windows,93022,10:16:33,1,0,SART,2,go,95,320,25,90,go,2,19ptc,0,0,0,0,0,Omission,0,12,35,116,285,169,1.0,0,BBAA
3.8.10,Windows,93022,10:16:33,1,0,SART,2,go,96,321,25,90,go,2,21ptc,0,0,0,0,0,Omission,0,12,35,117,286,169,0.0,0,BBAA
3.8.10,Windows,93022,10:16:33,1,0,SART,2,go,97,322,25,90,go,5,10ptc,0,0,0,0,0,Omission,0,12,35,118,287,169,0.0,0,BBAA
3.8.10,Windows,93022,10:16:33,1,0,SART,2,go,98,323,25,90,go,4,19ptc,0,0,0,0,0,Omission,0,12,35,119,288,169,0.0,0,BBAA
3.8.10,Windows,93022,10:16:33,1,0,SART,2,go,99,324,25,90,go,8,16ptc,0,0,0,0,0,Omission,0,12,35,120,289,169,0.0,0,BBAA
3.8.10,Windows,93022,10:16:33,1,0,SART,2,go,100,325,25,90,go,8,13ptc,0,0,0,0,0,Omission,0,12,35,121,290,169,0.0,0,BBAA
3.8.10,Windows,93022,10:16:33,1,0,SART,2,go,101,326,25,90,go,5,13ptc,0,0,0,0,0,Omission,0,12,35,122,291,169,1.0,0,BBAA
3.8.10,Windows,93022,10:16:33,1,0,SART,2,go,102,327,25,90,go,9,10ptc,0,0,0,0,0,Omission,0,12,35,123,292,169,1.0,0,BBAA
3.8.10,Windows,93022,10:16:33,1,0,SART,2,nogo,103,328,25,90,nogo,3,21ptc,0,1,0,0,0,NoGo Success,0,13,36,123,292,169,1.0,0,BBAA
3.8.10,Windows,93022,10:16:33,1,0,SART,2,go,104,329,25,90,go,8,16ptc,0,0,0,0,0,Omission,0,13,36,124,293,169,1.0,0,BBAA
3.8.10,Windows,93022,10:16:33,1,0,SART,2,go,105,330,25,90,go,9,19ptc,0,0,0,0,0,Omission,0,13,36,125,294,169,1.0,0,BBAA
3.8.10,Windows,93022,10:16:33,1,0,SART,2,go,106,331,25,90,go,1,13ptc,0,0,0,0,0,Omission,0,13,36,126,295,169,0.0,0,BBAA
3.8.10,Windows,93022,10:16:33,1,0,SART,2,go,107,332,25,90,go,5,16ptc,0,0,0,0,0,Omission,0,13,36,127,296,169,0.0,0,BBAA
3.8.10,Windows,93022,10:16:33,1,0,SART,2,go,108,333,25,90,go,6,19ptc,0,0,0,0,0,Omission,0,13,36,128,297,169,0.0,0,BBAA
3.8.10,Windows,93022,10:16:33,1,0,SART,2,go,109,334,25,90,go,2,21ptc,0,0,0,0,0,Omission,0,13,36,129,298,169,0.0,0,BBAA
3.8.10,Windows,93022,10:16:33,1,0,SART,2,go,110,335,25,90,go,6,10ptc,0,0,0,0,0,Omission,0,13,36,130,299,169,1.0,0,BBAA
3.8.10,Windows,93022,10:16:33,1,0,SART,2,go,111,336,25,90,go,2,16ptc,0,0,0,0,0,Omission,0,13,36,131,300,169,1.0,0,BBAA
3.8.10,Windows,93022,10:16:33,1,0,SART,2,nogo,112,337,25,90,nogo,3,19ptc,0,1,0,0,0,NoGo Success,0,14,37,131,300,169,1.0,0,BBAA
3.8.10,Windows,93022,10:16:33,1,0,SART,2,go,113,338,25,90,go,7,13ptc,0,0,0,0,0,Omission,0,14,37,132,301,169,1.0,0,BBAA
3.8.10,Windows,93022,10:16:33,1,0,SART,2,go,114,339,25,90,go,6,21ptc,0,0,0,0,0,Omission,0,14,37,133,302,169,1.0,0,BBAA
3.8.10,Windows,93022,10:16:33,1,0,SART,2,go,115,340,25,90,go,6,10ptc,0,0,0,0,0,Omission,0,14,37,134,303,169,1.0,0,BBAA
3.8.10,Windows,93022,10:16:33,1,0,SART,2,nogo,116,341,25,90,nogo,3,21ptc,0,1,0,0,0,NoGo Success,0,15,38,134,303,169,1.0,0,BBAA
3.8.10,Windows,93022,10:16:33,1,0,SART,2,nogo,117,342,25,90,nogo,3,16ptc,0,1,0,0,0,NoGo Success,0,16,39,134,303,169,1.0,0,BBAA
3.8.10,Windows,93022,10:16:33,1,0,SART,2,go,118,343,25,90,go,7,13ptc,0,0,0,0,0,Omission,0,16,39,135,304,169,1.0,0,BBAA
3.8.10,Windows,93022,10:16:33,1,0,SART,2,go,119,344,25,90,go,4,19ptc,0,0,0,0,0,Omission,0,16,39,136,305,169,1.0,0,BBAA
3.8.10,Windows,93022,10:16:33,1,0,SART,2,go,120,345,25,90,go,7,10ptc,0,0,0,0,0,Omission,0,16,39,137,306,169,0.0,0,BBAA
3.8.10,Windows,93022,10:16:33,1,0,SART,2,go,121,346,25,90,go,9,16ptc,0,0,0,0,0,Omission,0,16,39,138,307,169,0.0,0,BBAA
3.8.10,Windows,93022,10:16:33,1,0,SART,2,go,122,347,25,90,go,7,13ptc,0,0,0,0,0,Omission,0,16,39,139,308,169,0.0,0,BBAA
3.8.10,Windows,93022,10:16:33,1,0,SART,2,go,123,348,25,90,go,9,10ptc,0,0,0,0,0,Omission,0,16,39,140,309,169,0.0,0,BBAA
3.8.10,Windows,93022,10:16:33,1,0,SART,2,go,124,349,25,90,go,4,19ptc,0,0,0,0,0,Omission,0,16,39,141,310,169,0.0,0,BBAA
3.8.10,Windows,93022,10:16:33,1,0,SART,2,go,125,350,25,90,go,5,21ptc,0,0,0,0,0,Omission,0,16,39,142,311,169,1.0,0,BBAA
3.8.10,Windows,93022,10:16:33,1,0,SART,2,go,126,351,25,90,go,2,19ptc,0,0,0,0,0,Omission,0,16,39,143,312,169,1.0,0,BBAA
3.8.10,Windows,93022,10:16:33,1,0,SART,2,nogo,127,352,25,90,nogo,3,16ptc,0,1,0,0,0,NoGo Success,0,17,40,143,312,169,1.0,0,BBAA
3.8.10,Windows,93022,10:16:33,1,0,SART,2,go,128,353,25,90,go,4,10ptc,0,0,0,0,0,Omission,0,17,40,144,313,169,1.0,0,BBAA
3.8.10,Windows,93022,10:16:33,1,0,SART,2,go,129,354,25,90,go,7,21ptc,0,0,0,0,0,Omission,0,17,40,145,314,169,1.0,0,BBAA
3.8.10,Windows,93022,10:16:33,1,0,SART,2,go,130,355,25,90,go,9,13ptc,0,0,0,0,0,Omission,0,17,40,146,315,169,0.0,0,BBAA
3.8.10,Windows,93022,10:16:33,1,0,SART,2,go,131,356,25,90,go,7,21ptc,0,0,0,0,0,Omission,0,17,40,147,316,169,0.0,0,BBAA
3.8.10,Windows,93022,10:16:33,1,0,SART,2,go,132,357,25,90,go,2,13ptc,0,0,0,0,0,Omission,0,17,40,148,317,169,0.0,0,BBAA
3.8.10,Windows,93022,10:16:33,1,0,SART,2,go,133,358,25,90,go,8,16ptc,0,0,0,0,0,Omission,0,17,40,149,318,169,0.0,0,BBAA
3.8.10,Windows,93022,10:16:33,1,0,SART,2,go,134,359,25,90,go,1,19ptc,0,0,0,0,0,Omission,0,17,40,150,319,169,0.0,0,BBAA
3.8.10,Windows,93022,10:16:33,1,0,SART,2,go,135,360,25,90,go,8,10ptc,0,0,0,0,0,Omission,0,17,40,151,320,169,0.0,0,BBAA
3.8.10,Windows,93022,10:16:33,1,0,SART,2,go,136,361,25,90,go,4,21ptc,0,0,0,0,0,Omission,0,17,40,152,321,169,0.0,0,BBAA
3.8.10,Windows,93022,10:16:33,1,0,SART,2,go,137,362,25,90,go,8,10ptc,0,0,0,0,0,Omission,0,17,40,153,322,169,0.0,0,BBAA
3.8.10,Windows,93022,10:16:33,1,0,SART,2,go,138,363,25,90,go,6,19ptc,0,0,0,0,0,Omission,0,17,40,154,323,169,0.0,0,BBAA
3.8.10,Windows,93022,10:16:33,1,0,SART,2,go,139,364,25,90,go,4,16ptc,0,0,0,0,0,Omission,0,17,40,155,324,169,0.0,0,BBAA
3.8.10,Windows,93022,10:16:33,1,0,SART,2,go,140,365,25,90,go,2,13ptc,0,0,0,0,0,Omission,0,17,40,156,325,169,0.0,0,BBAA
3.8.10,Windows,93022,10:16:33,1,0,SART,2,go,141,366,25,90,go,1,13ptc,0,0,0,0,0,Omission,0,17,40,157,326,169,0.0,0,BBAA
3.8.10,Windows,93022,10:16:33,1,0,SART,2,go,142,367,25,90,go,5,10ptc,0,0,0,0,0,Omission,0,17,40,158,327,169,1.0,0,BBAA
3.8.10,Windows,93022,10:16:33,1,0,SART,2,go,143,368,25,90,go,8,21ptc,0,0,0,0,0,Omission,0,17,40,159,328,169,1.0,0,BBAA
3.8.10,Windows,93022,10:16:33,1,0,SART,2,nogo,144,369,25,90,nogo,3,16ptc,0,1,0,0,0,NoGo Success,0,18,41,159,328,169,1.0,0,BBAA
3.8.10,Windows,93022,10:16:33,1,0,SART,2,go,145,370,25,90,go,1,19ptc,0,0,0,0,0,Omission,0,18,41,160,329,169,1.0,0,BBAA
3.8.10,Windows,93022,10:16:33,1,0,SART,2,go,146,371,25,90,go,6,13ptc,0,0,0,0,0,Omission,0,18,41,161,330,169,1.0,0,BBAA
3.8.10,Windows,93022,10:16:33,1,0,SART,2,go,147,372,25,90,go,9,21ptc,0,0,0,0,0,Omission,0,18,41,162,331,169,0.0,0,BBAA
3.8.10,Windows,93022,10:16:33,1,0,SART,2,go,148,373,25,90,go,8,10ptc,0,0,0,0,0,Omission,0,18,41,163,332,169,0.0,0,BBAA
3.8.10,Windows,93022,10:16:33,1,0,SART,2,go,149,374,25,90,go,9,16ptc,0,0,0,0,0,Omission,0,18,41,164,333,169,0.0,0,BBAA
3.8.10,Windows,93022,10:16:33,1,0,SART,2,go,150,375,25,90,go,6,19ptc,0,0,0,0,0,Omission,0,18,41,165,334,169,0.0,0,BBAA
3.8.10,Windows,93022,10:16:33,1,0,SART,2,go,151,376,25,90,go,4,13ptc,0,0,0,0,0,Omission,0,18,41,166,335,169,0.0,0,BBAA
3.8.10,Windows,93022,10:16:33,1,0,SART,2,go,152,377,25,90,go,4,19ptc,0,0,0,0,0,Omission,0,18,41,167,336,169,0.0,0,BBAA
3.8.10,Windows,93022,10:16:33,1,0,SART,2,go,153,378,25,90,go,9,16ptc,0,0,0,0,0,Omission,0,18,41,168,337,169,0.0,0,BBAA
3.8.10,Windows,93022,10:16:33,1,0,SART,2,go,154,379,25,90,go,7,10ptc,0,0,0,0,0,Omission,0,18,41,169,338,169,0.0,0,BBAA
3.8.10,Windows,93022,10:16:33,1,0,SART,2,go,155,380,25,90,go,2,21ptc,0,0,0,0,0,Omission,0,18,41,170,339,169,0.0,0,BBAA
3.8.10,Windows,93022,10:16:33,1,0,SART,2,go,156,381,25,90,go,9,13ptc,0,0,0,0,0,Omission,0,18,41,171,340,169,1.0,0,BBAA
3.8.10,Windows,93022,10:16:33,1,0,SART,2,go,157,382,25,90,go,2,19ptc,0,0,0,0,0,Omission,0,18,41,172,341,169,1.0,0,BBAA
3.8.10,Windows,93022,10:16:33,1,0,SART,2,nogo,158,383,25,90,nogo,3,16ptc,0,1,0,0,0,NoGo Success,0,19,42,172,341,169,1.0,0,BBAA
3.8.10,Windows,93022,10:16:33,1,0,SART,2,go,159,384,25,90,go,6,21ptc,0,0,0,0,0,Omission,0,19,42,173,342,169,1.0,0,BBAA
3.8.10,Windows,93022,10:16:33,1,0,SART,2,go,160,385,25,90,go,2,10ptc,0,0,0,0,0,Omission,0,19,42,174,343,169,1.0,0,BBAA
3.8.10,Windows,93022,10:16:33,1,0,SART,2,go,161,386,25,90,go,6,21ptc,0,0,0,0,0,Omission,0,19,42,175,344,169,0.0,0,BBAA
3.8.10,Windows,93022,10:16:33,1,0,SART,2,go,162,387,25,90,go,1,10ptc,0,0,0,0,0,Omission,0,19,42,176,345,169,0.0,0,BBAA
3.8.10,Windows,93022,10:16:33,1,0,SART,2,go,163,388,25,90,go,8,16ptc,0,0,0,0,0,Omission,0,19,42,177,346,169,0.0,0,BBAA
3.8.10,Windows,93022,10:16:33,1,0,SART,2,go,164,389,25,90,go,5,13ptc,0,0,0,0,0,Omission,0,19,42,178,347,169,0.0,0,BBAA
3.8.10,Windows,93022,10:16:33,1,0,SART,2,go,165,390,25,90,go,4,19ptc,0,0,0,0,0,Omission,0,19,42,179,348,169,0.0,0,BBAA
3.8.10,Windows,93022,10:16:33,1,0,SART,2,go,166,391,25,90,go,2,13ptc,0,0,0,0,0,Omission,0,19,42,180,349,169,1.0,0,BBAA
3.8.10,Windows,93022,10:16:33,1,0,SART,2,go,167,392,25,90,go,8,19ptc,0,0,0,0,0,Omission,0,19,42,181,350,169,1.0,0,BBAA
3.8.10,Windows,93022,10:16:33,1,0,SART,2,nogo,168,393,25,90,nogo,3,10ptc,0,1,0,0,0,NoGo Success,0,20,43,181,350,169,1.0,0,BBAA
3.8.10,Windows,93022,10:16:33,1,0,SART,2,go,169,394,25,90,go,7,21ptc,0,0,0,0,0,Omission,0,20,43,182,351,169,1.0,0,BBAA
3.8.10,Windows,93022,10:16:33,1,0,SART,2,go,170,395,25,90,go,6,16ptc,0,0,0,0,0,Omission,0,20,43,183,352,169,1.0,0,BBAA
3.8.10,Windows,93022,10:16:33,1,0,SART,2,go,171,396,25,90,go,8,10ptc,0,0,0,0,0,Omission,0,20,43,184,353,169,1.0,0,BBAA
3.8.10,Windows,93022,10:16:33,1,0,SART,2,nogo,172,397,25,90,nogo,3,19ptc,0,1,0,0,0,NoGo Success,0,21,44,184,353,169,1.0,0,BBAA
3.8.10,Windows,93022,10:16:33,1,0,SART,2,go,173,398,25,90,go,2,21ptc,0,0,0,0,0,Omission,0,21,44,185,354,169,1.0,0,BBAA
3.8.10,Windows,93022,10:16:33,1,0,SART,2,go,174,399,25,90,go,5,13ptc,0,0,0,0,0,Omission,0,21,44,186,355,169,1.0,0,BBAA
3.8.10,Windows,93022,10:16:33,1,0,SART,2,go,175,400,25,90,go,5,16ptc,0,0,0,0,0,Omission,0,21,44,187,356,169,0.0,0,BBAA
3.8.10,Windows,93022,10:16:33,1,0,SART,2,go,176,401,25,90,go,1,16ptc,0,0,0,0,0,Omission,0,21,44,188,357,169,0.0,0,BBAA
3.8.10,Windows,93022,10:16:33,1,0,SART,2,go,177,402,25,90,go,6,13ptc,0,0,0,0,0,Omission,0,21,44,189,358,169,0.0,0,BBAA
3.8.10,Windows,93022,10:16:33,1,0,SART,2,go,178,403,25,90,go,4,21ptc,0,0,0,0,0,Omission,0,21,44,190,359,169,0.0,0,BBAA
3.8.10,Windows,93022,10:16:33,1,0,SART,2,go,179,404,25,90,go,6,10ptc,0,0,0,0,0,Omission,0,21,44,191,360,169,0.0,0,BBAA
3.8.10,Windows,93022,10:16:33,1,0,SART,2,go,180,405,25,90,go,4,19ptc,0,0,0,0,0,Omission,0,21,44,192,361,169,0.0,0,BBAA
3.8.10,Windows,93022,10:16:33,1,0,SART,2,go,181,406,25,90,go,7,10ptc,0,0,0,0,0,Omission,0,21,44,193,362,169,0.0,0,BBAA
3.8.10,Windows,93022,10:16:33,1,0,SART,2,go,182,407,25,90,go,4,13ptc,0,0,0,0,0,Omission,0,21,44,194,363,169,0.0,0,BBAA
3.8.10,Windows,93022,10:16:33,1,0,SART,2,go,183,408,25,90,go,5,16ptc,0,0,0,0,0,Omission,0,21,44,195,364,169,0.0,0,BBAA
3.8.10,Windows,93022,10:16:33,1,0,SART,2,go,184,409,25,90,go,1,19ptc,0,0,0,0,0,Omission,0,21,44,196,365,169,1.0,0,BBAA
3.8.10,Windows,93022,10:16:33,1,0,SART,2,go,185,410,25,90,go,7,21ptc,0,0,0,0,0,Omission,0,21,44,197,366,169,1.0,0,BBAA
3.8.10,Windows,93022,10:16:33,1,0,SART,2,nogo,186,411,25,90,nogo,3,10ptc,0,1,0,0,0,NoGo Success,0,22,45,197,366,169,1.0,0,BBAA
3.8.10,Windows,93022,10:16:33,1,0,SART,2,go,187,412,25,90,go,1,13ptc,0,0,0,0,0,Omission,0,22,45,198,367,169,1.0,0,BBAA
3.8.10,Windows,93022,10:16:33,1,0,SART,2,go,188,413,25,90,go,9,19ptc,0,0,0,0,0,Omission,0,22,45,199,368,169,1.0,0,BBAA
3.8.10,Windows,93022,10:16:33,1,0,SART,2,go,189,414,25,90,go,2,16ptc,0,0,0,0,0,Omission,0,22,45,200,369,169,0.0,0,BBAA
3.8.10,Windows,93022,10:16:33,1,0,SART,2,go,190,415,25,90,go,5,21ptc,0,0,0,0,0,Omission,0,22,45,201,370,169,0.0,0,BBAA
3.8.10,Windows,93022,10:16:33,1,0,SART,2,go,191,416,25,90,go,8,21ptc,0,0,0,0,0,Omission,0,22,45,202,371,169,0.0,0,BBAA
3.8.10,Windows,93022,10:16:33,1,0,SART,2,go,192,417,25,90,go,8,10ptc,0,0,0,0,0,Omission,0,22,45,203,372,169,1.0,0,BBAA
3.8.10,Windows,93022,10:16:33,1,0,SART,2,go,193,418,25,90,go,8,16ptc,0,0,0,0,0,Omission,0,22,45,204,373,169,1.0,0,BBAA
3.8.10,Windows,93022,10:16:33,1,0,SART,2,nogo,194,419,25,90,nogo,3,13ptc,0,1,0,0,0,NoGo Success,0,23,46,204,373,169,1.0,0,BBAA
3.8.10,Windows,93022,10:16:33,1,0,SART,2,go,195,420,25,90,go,2,19ptc,0,0,0,0,0,Omission,0,23,46,205,374,169,1.0,0,BBAA
3.8.10,Windows,93022,10:16:33,1,0,SART,2,nogo,196,421,25,90,nogo,3,13ptc,0,1,0,0,0,NoGo Success,0,24,47,205,374,169,1.0,0,BBAA
3.8.10,Windows,93022,10:16:33,1,0,SART,2,go,197,422,25,90,go,2,21ptc,0,0,0,0,0,Omission,0,24,47,206,375,169,1.0,0,BBAA
3.8.10,Windows,93022,10:16:33,1,0,SART,2,go,198,423,25,90,go,7,16ptc,0,0,0,0,0,Omission,0,24,47,207,376,169,1.0,0,BBAA
3.8.10,Windows,93022,10:16:33,1,0,SART,2,go,199,424,25,90,go,7,10ptc,0,0,0,0,0,Omission,0,24,47,208,377,169,0.0,0,BBAA
3.8.10,Windows,93022,10:16:33,1,0,SART,2,go,200,425,25,90,go,5,19ptc,0,0,0,0,0,Omission,0,24,47,209,378,169,0.0,0,BBAA
3.8.10,Windows,93022,10:16:33,1,0,SART,2,go,201,426,25,90,go,9,21ptc,0,0,0,0,0,Omission,0,24,47,210,379,169,0.0,0,BBAA
3.8.10,Windows,93022,10:16:33,1,0,SART,2,go,202,427,25,90,go,7,13ptc,0,0,0,0,0,Omission,0,24,47,211,380,169,0.0,0,BBAA
3.8.10,Windows,93022,10:16:33,1,0,SART,2,go,203,428,25,90,go,7,16ptc,0,0,0,0,0,Omission,0,24,47,212,381,169,0.0,0,BBAA
3.8.10,Windows,93022,10:16:33,1,0,SART,2,go,204,429,25,90,go,6,10ptc,0,0,0,0,0,Omission,0,24,47,213,382,169,0.0,0,BBAA
3.8.10,Windows,93022,10:16:33,1,0,SART,2,go,205,430,25,90,go,1,19ptc,0,0,0,0,0,Omission,0,24,47,214,383,169,0.0,0,BBAA
3.8.10,Windows,93022,10:16:33,1,0,SART,2,go,206,431,25,90,go,7,13ptc,0,0,0,0,0,Omission,0,24,47,215,384,169,1.0,0,BBAA
3.8.10,Windows,93022,10:16:33,1,0,SART,2,go,207,432,25,90,go,6,19ptc,0,0,0,0,0,Omission,0,24,47,216,385,169,1.0,0,BBAA
3.8.10,Windows,93022,10:16:33,1,0,SART,2,nogo,208,433,25,90,nogo,3,21ptc,0,1,0,0,0,NoGo Success,0,25,48,216,385,169,1.0,0,BBAA
3.8.10,Windows,93022,10:16:33,1,0,SART,2,go,209,434,25,90,go,2,16ptc,0,0,0,0,0,Omission,0,25,48,217,386,169,1.0,0,BBAA
3.8.10,Windows,93022,10:16:33,1,0,SART,2,nogo,210,435,25,90,nogo,3,10ptc,0,1,0,0,0,NoGo Success,0,26,49,217,386,169,1.0,0,BBAA
3.8.10,Windows,93022,10:16:33,1,0,SART,2,nogo,211,436,25,90,nogo,3,10ptc,0,1,0,0,0,NoGo Success,0,27,50,217,386,169,1.0,0,BBAA
3.8.10,Windows,93022,10:16:33,1,0,SART,2,go,212,437,25,90,go,1,13ptc,0,0,0,0,0,Omission,0,27,50,218,387,169,1.0,0,BBAA
3.8.10,Windows,93022,10:16:33,1,0,SART,2,go,213,438,25,90,go,9,21ptc,0,0,0,0,0,Omission,0,27,50,219,388,169,1.0,0,BBAA
3.8.10,Windows,93022,10:16:33,1,0,SART,2,go,214,439,25,90,go,2,16ptc,0,0,0,0,0,Omission,0,27,50,220,389,169,0.0,0,BBAA
3.8.10,Windows,93022,10:16:33,1,0,SART,2,go,215,440,25,90,go,7,19ptc,0,0,0,0,0,Omission,0,27,50,221,390,169,0.0,0,BBAA
3.8.10,Windows,93022,10:16:33,1,0,SART,2,go,216,441,25,90,go,9,10ptc,0,0,0,0,0,Omission,0,27,50,222,391,169,0.0,0,BBAA
3.8.10,Windows,93022,10:16:33,1,0,SART,2,go,217,442,25,90,go,8,16ptc,0,0,0,0,0,Omission,0,27,50,223,392,169,0.0,0,BBAA
3.8.10,Windows,93022,10:16:33,1,0,SART,2,go,218,443,25,90,go,5,19ptc,0,0,0,0,0,Omission,0,27,50,224,393,169,0.0,0,BBAA
3.8.10,Windows,93022,10:16:33,1,0,SART,2,go,219,444,25,90,go,5,21ptc,0,0,0,0,0,Omission,0,27,50,225,394,169,0.0,0,BBAA
3.8.10,Windows,93022,10:16:33,1,0,SART,2,go,220,445,25,90,go,7,13ptc,0,0,0,0,0,Omission,0,27,50,226,395,169,0.0,0,BBAA
3.8.10,Windows,93022,10:16:33,1,0,SART,2,go,221,446,25,90,go,6,13ptc,0,0,0,0,0,Omission,0,27,50,227,396,169,0.0,0,BBAA
3.8.10,Windows,93022,10:16:33,1,0,SART,2,go,222,447,25,90,go,6,21ptc,0,0,0,0,0,Omission,0,27,50,228,397,169,0.0,0,BBAA
3.8.10,Windows,93022,10:16:33,1,0,SART,2,go,223,448,25,90,go,5,10ptc,0,0,0,0,0,Omission,0,27,50,229,398,169,0.0,0,BBAA
3.8.10,Windows,93022,10:16:33,1,0,SART,2,go,224,449,25,90,go,9,16ptc,0,0,0,0,0,Omission,0,27,50,230,399,169,0.0,0,BBAA
3.8.10,Windows,93022,10:16:33,1,0,SART,2,go,225,450,25,90,go,2,19ptc,0,0,0,0,0,Omission,0,27,50,231,400,169,0.0,0,BBAA
3.8.10,Windows,93022,10:16:33,1,0,SART,3,go,1,451,25,90,go,8,13ptc,0,0,0,0,0,Omission,0,27,50,232,401,169,0.0,1.4,BBAA
3.8.10,Windows,93022,10:16:33,1,0,SART,3,go,2,452,25,90,go,1,19ptc,0,0,0,0,0,Omission,0,27,50,233,402,169,0.0,1.4,BBAA
3.8.10,Windows,93022,10:16:33,1,0,SART,3,go,3,453,25,90,go,1,10ptc,0,0,0,0,0,Omission,0,27,50,234,403,169,0.0,1.4,BBAA
3.8.10,Windows,93022,10:16:33,1,0,SART,3,go,4,454,25,90,go,2,21ptc,0,0,0,0,0,Omission,0,27,50,235,404,169,0.0,1.4,BBAA
3.8.10,Windows,93022,10:16:33,1,0,SART,3,go,5,455,25,90,go,5,16ptc,0,0,0,0,0,Omission,0,27,50,236,405,169,0.0,1.4,BBAA
3.8.10,Windows,93022,10:16:33,1,0,SART,3,go,6,456,25,90,go,9,19ptc,0,0,0,0,0,Omission,0,27,50,237,406,169,0.0,1.4,BBAA
3.8.10,Windows,93022,10:16:33,1,0,SART,3,go,7,457,25,90,go,6,16ptc,0,0,0,0,0,Omission,0,27,50,238,407,169,0.0,1.4,BBAA
3.8.10,Windows,93022,10:16:33,1,0,SART,3,go,8,458,25,90,go,7,10ptc,0,0,0,0,0,Omission,0,27,50,239,408,169,0.0,1.4,BBAA
3.8.10,Windows,93022,10:16:33,1,0,SART,3,go,9,459,25,90,go,8,21ptc,0,0,0,0,0,Omission,0,27,50,240,409,169,0.0,1.4,BBAA
3.8.10,Windows,93022,10:16:33,1,0,SART,3,go,10,460,25,90,go,8,13ptc,0,0,0,0,0,Omission,0,27,50,241,410,169,0.0,1.4,BBAA
3.8.10,Windows,93022,10:16:33,1,0,SART,3,go,11,461,25,90,go,4,19ptc,0,0,0,0,0,Omission,0,27,50,242,411,169,0.0,1.4,BBAA
3.8.10,Windows,93022,10:16:33,1,0,SART,3,go,12,462,25,90,go,2,13ptc,0,0,0,0,0,Omission,0,27,50,243,412,169,0.0,1.4,BBAA
3.8.10,Windows,93022,10:16:33,1,0,SART,3,go,13,463,25,90,go,5,10ptc,0,0,0,0,0,Omission,0,27,50,244,413,169,0.0,1.4,BBAA
3.8.10,Windows,93022,10:16:33,1,0,SART,3,go,14,464,25,90,go,4,16ptc,0,0,0,0,0,Omission,0,27,50,245,414,169,0.0,1.4,BBAA
3.8.10,Windows,93022,10:16:33,1,0,SART,3,go,15,465,25,90,go,5,21ptc,0,0,0,0,0,Omission,0,27,50,246,415,169,0.0,1.4,BBAA
3.8.10,Windows,93022,10:16:33,1,0,SART,3,go,16,466,25,90,go,6,21ptc,0,0,0,0,0,Omission,0,27,50,247,416,169,0.0,1.4,BBAA
3.8.10,Windows,93022,10:16:33,1,0,SART,3,go,17,467,25,90,go,9,13ptc,0,0,0,0,0,Omission,0,27,50,248,417,169,0.0,1.4,BBAA
3.8.10,Windows,93022,10:16:33,1,0,SART,3,go,18,468,25,90,go,5,16ptc,0,0,0,0,0,Omission,0,27,50,249,418,169,0.0,1.4,BBAA
3.8.10,Windows,93022,10:16:33,1,0,SART,3,go,19,469,25,90,go,9,10ptc,0,0,0,0,0,Omission,0,27,50,250,419,169,0.0,1.4,BBAA
3.8.10,Windows,93022,10:16:33,1,0,SART,3,go,20,470,25,90,go,8,19ptc,0,0,0,0,0,Omission,0,27,50,251,420,169,0.0,1.4,BBAA
3.8.10,Windows,93022,10:16:33,1,0,SART,3,go,21,471,25,90,go,7,13ptc,0,0,0,0,0,Omission,0,27,50,252,421,169,0.0,1.4,BBAA
3.8.10,Windows,93022,10:16:33,1,0,SART,3,go,22,472,25,90,go,1,19ptc,0,0,0,0,0,Omission,0,27,50,253,422,169,0.0,1.4,BBAA
3.8.10,Windows,93022,10:16:33,1,0,SART,3,go,23,473,25,90,go,9,21ptc,0,0,0,0,0,Omission,0,27,50,254,423,169,0.0,1.4,BBAA
3.8.10,Windows,93022,10:16:33,1,0,SART,3,go,24,474,25,90,go,2,16ptc,0,0,0,0,0,Omission,0,27,50,255,424,169,1.0,1.4,BBAA
3.8.10,Windows,93022,10:16:33,1,0,SART,3,go,25,475,25,90,go,6,10ptc,0,0,0,0,0,Omission,0,27,50,256,425,169,1.0,1.4,BBAA
3.8.10,Windows,93022,10:16:33,1,0,SART,3,nogo,26,476,25,90,nogo,3,10ptc,0,1,0,0,0,NoGo Success,0,28,51,256,425,169,1.0,1.4,BBAA
3.8.10,Windows,93022,10:16:33,1,0,SART,3,go,27,477,25,90,go,2,13ptc,0,0,0,0,0,Omission,0,28,51,257,426,169,1.0,1.4,BBAA
3.8.10,Windows,93022,10:16:33,1,0,SART,3,go,28,478,25,90,go,4,19ptc,0,0,0,0,0,Omission,0,28,51,258,427,169,1.0,1.4,BBAA
3.8.10,Windows,93022,10:16:33,1,0,SART,3,go,29,479,25,90,go,5,16ptc,0,0,0,0,0,Omission,0,28,51,259,428,169,0.0,1.4,BBAA
3.8.10,Windows,93022,10:16:33,1,0,SART,3,go,30,480,25,90,go,1,21ptc,0,0,0,0,0,Omission,0,28,51,260,429,169,0.0,1.4,BBAA
3.8.10,Windows,93022,10:16:33,1,0,SART,3,go,31,481,25,90,go,7,16ptc,0,0,0,0,0,Omission,0,28,51,261,430,169,0.0,1.4,BBAA
3.8.10,Windows,93022,10:16:33,1,0,SART,3,go,32,482,25,90,go,9,19ptc,0,0,0,0,0,Omission,0,28,51,262,431,169,0.0,1.4,BBAA
3.8.10,Windows,93022,10:16:33,1,0,SART,3,go,33,483,25,90,go,4,10ptc,0,0,0,0,0,Omission,0,28,51,263,432,169,0.0,1.4,BBAA
3.8.10,Windows,93022,10:16:33,1,0,SART,3,go,34,484,25,90,go,7,21ptc,0,0,0,0,0,Omission,0,28,51,264,433,169,0.0,1.4,BBAA
3.8.10,Windows,93022,10:16:33,1,0,SART,3,go,35,485,25,90,go,9,13ptc,0,0,0,0,0,Omission,0,28,51,265,434,169,0.0,1.4,BBAA
3.8.10,Windows,93022,10:16:33,1,0,SART,3,go,36,486,25,90,go,1,10ptc,0,0,0,0,0,Omission,0,28,51,266,435,169,0.0,1.4,BBAA
3.8.10,Windows,93022,10:16:33,1,0,SART,3,go,37,487,25,90,go,6,16ptc,0,0,0,0,0,Omission,0,28,51,267,436,169,0.0,1.4,BBAA
3.8.10,Windows,93022,10:16:33,1,0,SART,3,go,38,488,25,90,go,8,21ptc,0,0,0,0,0,Omission,0,28,51,268,437,169,0.0,1.4,BBAA
3.8.10,Windows,93022,10:16:33,1,0,SART,3,go,39,489,25,90,go,5,13ptc,0,0,0,0,0,Omission,0,28,51,269,438,169,0.0,1.4,BBAA
3.8.10,Windows,93022,10:16:33,1,0,SART,3,go,40,490,25,90,go,9,19ptc,0,0,0,0,0,Omission,0,28,51,270,439,169,0.0,1.4,BBAA
3.8.10,Windows,93022,10:16:33,1,0,SART,3,go,41,491,25,90,go,7,21ptc,0,0,0,0,0,Omission,0,28,51,271,440,169,0.0,1.4,BBAA
3.8.10,Windows,93022,10:16:33,1,0,SART,3,go,42,492,25,90,go,7,10ptc,0,0,0,0,0,Omission,0,28,51,272,441,169,0.0,1.4,BBAA
3.8.10,Windows,93022,10:16:33,1,0,SART,3,go,43,493,25,90,go,6,16ptc,0,0,0,0,0,Omission,0,28,51,273,442,169,0.0,1.4,BBAA
3.8.10,Windows,93022,10:16:33,1,0,SART,3,go,44,494,25,90,go,2,19ptc,0,0,0,0,0,Omission,0,28,51,274,443,169,0.0,1.4,BBAA
3.8.10,Windows,93022,10:16:33,1,0,SART,3,go,45,495,25,90,go,2,13ptc,0,0,0,0,0,Omission,0,28,51,275,444,169,0.0,1.4,BBAA
3.8.10,Windows,93022,10:16:33,1,0,SART,3,go,46,496,25,90,go,4,16ptc,0,0,0,0,0,Omission,0,28,51,276,445,169,0.0,1.4,BBAA
3.8.10,Windows,93022,10:16:33,1,0,SART,3,go,47,497,25,90,go,4,10ptc,0,0,0,0,0,Omission,0,28,51,277,446,169,1.0,1.4,BBAA
3.8.10,Windows,93022,10:16:33,1,0,SART,3,go,48,498,25,90,go,2,13ptc,0,0,0,0,0,Omission,0,28,51,278,447,169,1.0,1.4,BBAA
3.8.10,Windows,93022,10:16:33,1,0,SART,3,nogo,49,499,25,90,nogo,3,19ptc,0,1,0,0,0,NoGo Success,0,29,52,278,447,169,1.0,1.4,BBAA
3.8.10,Windows,93022,10:16:33,1,0,SART,3,go,50,500,25,90,go,1,21ptc,0,0,0,0,0,Omission,0,29,52,279,448,169,1.0,1.4,BBAA
3.8.10,Windows,93022,10:16:33,1,0,SART,3,nogo,51,501,25,90,nogo,3,13ptc,0,1,0,0,0,NoGo Success,0,30,53,279,448,169,1.0,1.4,BBAA
3.8.10,Windows,93022,10:16:33,1,0,SART,3,go,52,502,25,90,go,7,19ptc,0,0,0,0,0,Omission,0,30,53,280,449,169,1.0,1.4,BBAA
3.8.10,Windows,93022,10:16:33,1,0,SART,3,go,53,503,25,90,go,2,21ptc,0,0,0,0,0,Omission,0,30,53,281,450,169,1.0,1.4,BBAA
3.8.10,Windows,93022,10:16:33,1,0,SART,3,go,54,504,25,90,go,1,10ptc,0,0,0,0,0,Omission,0,30,53,282,451,169,0.0,1.4,BBAA
3.8.10,Windows,93022,10:16:33,1,0,SART,3,go,55,505,25,90,go,5,16ptc,0,0,0,0,0,Omission,0,30,53,283,452,169,0.0,1.4,BBAA
3.8.10,Windows,93022,10:16:33,1,0,SART,3,go,56,506,25,90,go,5,19ptc,0,0,0,0,0,Omission,0,30,53,284,453,169,0.0,1.4,BBAA
3.8.10,Windows,93022,10:16:33,1,0,SART,3,go,57,507,25,90,go,6,21ptc,0,0,0,0,0,Omission,0,30,53,285,454,169,0.0,1.4,BBAA
3.8.10,Windows,93022,10:16:33,1,0,SART,3,go,58,508,25,90,go,2,16ptc,0,0,0,0,0,Omission,0,30,53,286,455,169,0.0,1.4,BBAA
3.8.10,Windows,93022,10:16:33,1,0,SART,3,go,59,509,25,90,go,7,13ptc,0,0,0,0,0,Omission,0,30,53,287,456,169,0.0,1.4,BBAA
3.8.10,Windows,93022,10:16:33,1,0,SART,3,go,60,510,25,90,go,1,10ptc,0,0,0,0,0,Omission,0,30,53,288,457,169,0.0,1.4,BBAA
3.8.10,Windows,93022,10:16:33,1,0,SART,3,go,61,511,25,90,go,8,19ptc,0,0,0,0,0,Omission,0,30,53,289,458,169,0.0,1.4,BBAA
3.8.10,Windows,93022,10:16:33,1,0,SART,3,go,62,512,25,90,go,8,13ptc,0,0,0,0,0,Omission,0,30,53,290,459,169,0.0,1.4,BBAA
3.8.10,Windows,93022,10:16:33,1,0,SART,3,go,63,513,25,90,go,6,16ptc,0,0,0,0,0,Omission,0,30,53,291,460,169,0.0,1.4,BBAA
3.8.10,Windows,93022,10:16:33,1,0,SART,3,go,64,514,25,90,go,8,21ptc,0,0,0,0,0,Omission,0,30,53,292,461,169,1.0,1.4,BBAA
3.8.10,Windows,93022,10:16:33,1,0,SART,3,go,65,515,25,90,go,4,10ptc,0,0,0,0,0,Omission,0,30,53,293,462,169,1.0,1.4,BBAA
3.8.10,Windows,93022,10:16:33,1,0,SART,3,nogo,66,516,25,90,nogo,3,19ptc,0,1,0,0,0,NoGo Success,0,31,54,293,462,169,1.0,1.4,BBAA
3.8.10,Windows,93022,10:16:33,1,0,SART,3,nogo,67,517,25,90,nogo,3,21ptc,0,1,0,0,0,NoGo Success,0,32,55,293,462,169,1.0,1.4,BBAA
3.8.10,Windows,93022,10:16:33,1,0,SART,3,go,68,518,25,90,go,8,10ptc,0,0,0,0,0,Omission,0,32,55,294,463,169,1.0,1.4,BBAA
3.8.10,Windows,93022,10:16:33,1,0,SART,3,go,69,519,25,90,go,6,16ptc,0,0,0,0,0,Omission,0,32,55,295,464,169,1.0,1.4,BBAA
3.8.10,Windows,93022,10:16:33,1,0,SART,3,go,70,520,25,90,go,6,13ptc,0,0,0,0,0,Omission,0,32,55,296,465,169,1.0,1.4,BBAA
3.8.10,Windows,93022,10:16:33,1,0,SART,3,nogo,71,521,25,90,nogo,3,13ptc,0,1,0,0,0,NoGo Success,0,33,56,296,465,169,1.0,1.4,BBAA
3.8.10,Windows,93022,10:16:33,1,0,SART,3,go,72,522,25,90,go,6,16ptc,0,0,0,0,0,Omission,0,33,56,297,466,169,1.0,1.4,BBAA
3.8.10,Windows,93022,10:16:33,1,0,SART,3,nogo,73,523,25,90,nogo,3,21ptc,0,1,0,0,0,NoGo Success,0,34,57,297,466,169,1.0,1.4,BBAA
3.8.10,Windows,93022,10:16:33,1,0,SART,3,go,74,524,25,90,go,7,10ptc,0,0,0,0,0,Omission,0,34,57,298,467,169,1.0,1.4,BBAA
3.8.10,Windows,93022,10:16:33,1,0,SART,3,go,75,525,25,90,go,9,19ptc,0,0,0,0,0,Omission,0,34,57,299,468,169,1.0,1.4,BBAA
3.8.10,Windows,93022,10:16:33,1,0,SART,3,go,76,526,25,90,go,4,21ptc,0,0,0,0,0,Omission,0,34,57,300,469,169,0.0,1.4,BBAA
3.8.10,Windows,93022,10:16:33,1,0,SART,3,go,77,527,25,90,go,9,13ptc,0,0,0,0,0,Omission,0,34,57,301,470,169,0.0,1.4,BBAA
3.8.10,Windows,93022,10:16:33,1,0,SART,3,go,78,528,25,90,go,7,10ptc,0,0,0,0,0,Omission,0,34,57,302,471,169,0.0,1.4,BBAA
3.8.10,Windows,93022,10:16:33,1,0,SART,3,go,79,529,25,90,go,8,16ptc,0,0,0,0,0,Omission,0,34,57,303,472,169,0.0,1.4,BBAA
3.8.10,Windows,93022,10:16:33,1,0,SART,3,go,80,530,25,90,go,4,19ptc,0,0,0,0,0,Omission,0,34,57,304,473,169,0.0,1.4,BBAA
3.8.10,Windows,93022,10:16:33,1,0,SART,3,go,81,531,25,90,go,8,19ptc,0,0,0,0,0,Omission,0,34,57,305,474,169,0.0,1.4,BBAA
3.8.10,Windows,93022,10:16:33,1,0,SART,3,go,82,532,25,90,go,6,10ptc,0,0,0,0,0,Omission,0,34,57,306,475,169,0.0,1.4,BBAA
3.8.10,Windows,93022,10:16:33,1,0,SART,3,go,83,533,25,90,go,7,16ptc,0,0,0,0,0,Omission,0,34,57,307,476,169,0.0,1.4,BBAA
3.8.10,Windows,93022,10:16:33,1,0,SART,3,go,84,534,25,90,go,6,13ptc,0,0,0,0,0,Omission,0,34,57,308,477,169,0.0,1.4,BBAA
3.8.10,Windows,93022,10:16:33,1,0,SART,3,go,85,535,25,90,go,5,21ptc,0,0,0,0,0,Omission,0,34,57,309,478,169,0.0,1.4,BBAA
3.8.10,Windows,93022,10:16:33,1,0,SART,3,go,86,536,25,90,go,9,21ptc,0,0,0,0,0,Omission,0,34,57,310,479,169,0.0,1.4,BBAA
3.8.10,Windows,93022,10:16:33,1,0,SART,3,go,87,537,25,90,go,1,13ptc,0,0,0,0,0,Omission,0,34,57,311,480,169,0.0,1.4,BBAA
3.8.10,Windows,93022,10:16:33,1,0,SART,3,go,88,538,25,90,go,8,16ptc,0,0,0,0,0,Omission,0,34,57,312,481,169,0.0,1.4,BBAA
3.8.10,Windows,93022,10:16:33,1,0,SART,3,go,89,539,25,90,go,7,10ptc,0,0,0,0,0,Omission,0,34,57,313,482,169,0.0,1.4,BBAA
3.8.10,Windows,93022,10:16:33,1,0,SART,3,go,90,540,25,90,go,5,19ptc,0,0,0,0,0,Omission,0,34,57,314,483,169,0.0,1.4,BBAA
3.8.10,Windows,93022,10:16:33,1,0,SART,3,go,91,541,25,90,go,9,16ptc,0,0,0,0,0,Omission,0,34,57,315,484,169,0.0,1.4,BBAA
3.8.10,Windows,93022,10:16:33,1,0,SART,3,go,92,542,25,90,go,2,21ptc,0,0,0,0,0,Omission,0,34,57,316,485,169,0.0,1.4,BBAA
3.8.10,Windows,93022,10:16:33,1,0,SART,3,go,93,543,25,90,go,1,10ptc,0,0,0,0,0,Omission,0,34,57,317,486,169,0.0,1.4,BBAA
3.8.10,Windows,93022,10:16:33,1,0,SART,3,go,94,544,25,90,go,7,13ptc,0,0,0,0,0,Omission,0,34,57,318,487,169,0.0,1.4,BBAA
3.8.10,Windows,93022,10:16:33,1,0,SART,3,go,95,545,25,90,go,8,19ptc,0,0,0,0,0,Omission,0,34,57,319,488,169,0.0,1.4,BBAA
3.8.10,Windows,93022,10:16:33,1,0,SART,3,go,96,546,25,90,go,9,16ptc,0,0,0,0,0,Omission,0,34,57,320,489,169,0.0,1.4,BBAA
3.8.10,Windows,93022,10:16:33,1,0,SART,3,go,97,547,25,90,go,5,10ptc,0,0,0,0,0,Omission,0,34,57,321,490,169,0.0,1.4,BBAA
3.8.10,Windows,93022,10:16:33,1,0,SART,3,go,98,548,25,90,go,2,21ptc,0,0,0,0,0,Omission,0,34,57,322,491,169,0.0,1.4,BBAA
3.8.10,Windows,93022,10:16:33,1,0,SART,3,go,99,549,25,90,go,2,19ptc,0,0,0,0,0,Omission,0,34,57,323,492,169,1.0,1.4,BBAA
3.8.10,Windows,93022,10:16:33,1,0,SART,3,go,100,550,25,90,go,4,13ptc,0,0,0,0,0,Omission,0,34,57,324,493,169,1.0,1.4,BBAA
3.8.10,Windows,93022,10:16:33,1,0,SART,3,nogo,101,551,25,90,nogo,3,13ptc,0,1,0,0,0,NoGo Success,0,35,58,324,493,169,1.0,1.4,BBAA
3.8.10,Windows,93022,10:16:33,1,0,SART,3,go,102,552,25,90,go,5,19ptc,0,0,0,0,0,Omission,0,35,58,325,494,169,1.0,1.4,BBAA
3.8.10,Windows,93022,10:16:33,1,0,SART,3,go,103,553,25,90,go,2,16ptc,0,0,0,0,0,Omission,0,35,58,326,495,169,1.0,1.4,BBAA
3.8.10,Windows,93022,10:16:33,1,0,SART,3,go,104,554,25,90,go,4,10ptc,0,0,0,0,0,Omission,0,35,58,327,496,169,0.0,1.4,BBAA
3.8.10,Windows,93022,10:16:33,1,0,SART,3,go,105,555,25,90,go,2,21ptc,0,0,0,0,0,Omission,0,35,58,328,497,169,0.0,1.4,BBAA
3.8.10,Windows,93022,10:16:33,1,0,SART,3,go,106,556,25,90,go,6,13ptc,0,0,0,0,0,Omission,0,35,58,329,498,169,0.0,1.4,BBAA
3.8.10,Windows,93022,10:16:33,1,0,SART,3,go,107,557,25,90,go,6,10ptc,0,0,0,0,0,Omission,0,35,58,330,499,169,0.0,1.4,BBAA
3.8.10,Windows,93022,10:16:33,1,0,SART,3,go,108,558,25,90,go,7,16ptc,0,0,0,0,0,Omission,0,35,58,331,500,169,0.0,1.4,BBAA
3.8.10,Windows,93022,10:16:33,1,0,SART,3,go,109,559,25,90,go,1,19ptc,0,0,0,0,0,Omission,0,35,58,332,501,169,0.0,1.4,BBAA
3.8.10,Windows,93022,10:16:33,1,0,SART,3,go,110,560,25,90,go,4,21ptc,0,0,0,0,0,Omission,0,35,58,333,502,169,0.0,1.4,BBAA
3.8.10,Windows,93022,10:16:33,1,0,SART,3,go,111,561,25,90,go,6,13ptc,0,0,0,0,0,Omission,0,35,58,334,503,169,0.0,1.4,BBAA
3.8.10,Windows,93022,10:16:33,1,0,SART,3,go,112,562,25,90,go,4,16ptc,0,0,0,0,0,Omission,0,35,58,335,504,169,0.0,1.4,BBAA
3.8.10,Windows,93022,10:16:33,1,0,SART,3,go,113,563,25,90,go,8,21ptc,0,0,0,0,0,Omission,0,35,58,336,505,169,1.0,1.4,BBAA
3.8.10,Windows,93022,10:16:33,1,0,SART,3,go,114,564,25,90,go,1,10ptc,0,0,0,0,0,Omission,0,35,58,337,506,169,1.0,1.4,BBAA
3.8.10,Windows,93022,10:16:33,1,0,SART,3,nogo,115,565,25,90,nogo,3,19ptc,0,1,0,0,0,NoGo Success,0,36,59,337,506,169,1.0,1.4,BBAA
3.8.10,Windows,93022,10:16:33,1,0,SART,3,nogo,116,566,25,90,nogo,3,19ptc,0,1,0,0,0,NoGo Success,0,37,60,337,506,169,1.0,1.4,BBAA
3.8.10,Windows,93022,10:16:33,1,0,SART,3,go,117,567,25,90,go,1,10ptc,0,0,0,0,0,Omission,0,37,60,338,507,169,1.0,1.4,BBAA
3.8.10,Windows,93022,10:16:33,1,0,SART,3,nogo,118,568,25,90,nogo,3,16ptc,0,1,0,0,0,NoGo Success,0,38,61,338,507,169,1.0,1.4,BBAA
3.8.10,Windows,93022,10:16:33,1,0,SART,3,go,119,569,25,90,go,7,21ptc,0,0,0,0,0,Omission,0,38,61,339,508,169,1.0,1.4,BBAA
3.8.10,Windows,93022,10:16:33,1,0,SART,3,go,120,570,25,90,go,4,13ptc,0,0,0,0,0,Omission,0,38,61,340,509,169,1.0,1.4,BBAA
3.8.10,Windows,93022,10:16:33,1,0,SART,3,go,121,571,25,90,go,2,16ptc,0,0,0,0,0,Omission,0,38,61,341,510,169,1.0,1.4,BBAA
3.8.10,Windows,93022,10:16:33,1,0,SART,3,go,122,572,25,90,go,4,10ptc,0,0,0,0,0,Omission,0,38,61,342,511,169,1.0,1.4,BBAA
3.8.10,Windows,93022,10:16:33,1,0,SART,3,nogo,123,573,25,90,nogo,3,19ptc,0,1,0,0,0,NoGo Success,0,39,62,342,511,169,1.0,1.4,BBAA
3.8.10,Windows,93022,10:16:33,1,0,SART,3,go,124,574,25,90,go,5,13ptc,0,0,0,0,0,Omission,0,39,62,343,512,169,1.0,1.4,BBAA
3.8.10,Windows,93022,10:16:33,1,0,SART,3,go,125,575,25,90,go,2,21ptc,0,0,0,0,0,Omission,0,39,62,344,513,169,1.0,1.4,BBAA
3.8.10,Windows,93022,10:16:33,1,0,SART,3,nogo,126,576,25,90,nogo,3,10ptc,0,1,0,0,0,NoGo Success,0,40,63,344,513,169,1.0,1.4,BBAA
3.8.10,Windows,93022,10:16:33,1,0,SART,3,go,127,577,25,90,go,7,13ptc,0,0,0,0,0,Omission,0,40,63,345,514,169,1.0,1.4,BBAA
3.8.10,Windows,93022,10:16:33,1,0,SART,3,nogo,128,578,25,90,nogo,3,21ptc,0,1,0,0,0,NoGo Success,0,41,64,345,514,169,1.0,1.4,BBAA
3.8.10,Windows,93022,10:16:33,1,0,SART,3,go,129,579,25,90,go,7,16ptc,0,0,0,0,0,Omission,0,41,64,346,515,169,1.0,1.4,BBAA
3.8.10,Windows,93022,10:16:33,1,0,SART,3,go,130,580,25,90,go,7,19ptc,0,0,0,0,0,Omission,0,41,64,347,516,169,1.0,1.4,BBAA
3.8.10,Windows,93022,10:16:33,1,0,SART,3,go,131,581,25,90,go,7,21ptc,0,0,0,0,0,Omission,0,41,64,348,517,169,0.0,1.4,BBAA
3.8.10,Windows,93022,10:16:33,1,0,SART,3,go,132,582,25,90,go,4,19ptc,0,0,0,0,0,Omission,0,41,64,349,518,169,0.0,1.4,BBAA
3.8.10,Windows,93022,10:16:33,1,0,SART,3,go,133,583,25,90,go,4,10ptc,0,0,0,0,0,Omission,0,41,64,350,519,169,0.0,1.4,BBAA
3.8.10,Windows,93022,10:16:33,1,0,SART,3,go,134,584,25,90,go,4,13ptc,0,0,0,0,0,Omission,0,41,64,351,520,169,0.0,1.4,BBAA
3.8.10,Windows,93022,10:16:33,1,0,SART,3,go,135,585,25,90,go,4,16ptc,0,0,0,0,0,Omission,0,41,64,352,521,169,0.0,1.4,BBAA
3.8.10,Windows,93022,10:16:33,1,0,SART,3,go,136,586,25,90,go,9,19ptc,0,0,0,0,0,Omission,0,41,64,353,522,169,0.0,1.4,BBAA
3.8.10,Windows,93022,10:16:33,1,0,SART,3,go,137,587,25,90,go,5,21ptc,0,0,0,0,0,Omission,0,41,64,354,523,169,0.0,1.4,BBAA
3.8.10,Windows,93022,10:16:33,1,0,SART,3,go,138,588,25,90,go,5,10ptc,0,0,0,0,0,Omission,0,41,64,355,524,169,0.0,1.4,BBAA
3.8.10,Windows,93022,10:16:33,1,0,SART,3,go,139,589,25,90,go,6,13ptc,0,0,0,0,0,Omission,0,41,64,356,525,169,0.0,1.4,BBAA
3.8.10,Windows,93022,10:16:33,1,0,SART,3,go,140,590,25,90,go,5,16ptc,0,0,0,0,0,Omission,0,41,64,357,526,169,0.0,1.4,BBAA
3.8.10,Windows,93022,10:16:33,1,0,SART,3,go,141,591,25,90,go,8,10ptc,0,0,0,0,0,Omission,0,41,64,358,527,169,0.0,1.4,BBAA
3.8.10,Windows,93022,10:16:33,1,0,SART,3,go,142,592,25,90,go,8,13ptc,0,0,0,0,0,Omission,0,41,64,359,528,169,0.0,1.4,BBAA
3.8.10,Windows,93022,10:16:33,1,0,SART,3,go,143,593,25,90,go,1,21ptc,0,0,0,0,0,Omission,0,41,64,360,529,169,1.0,1.4,BBAA
3.8.10,Windows,93022,10:16:33,1,0,SART,3,go,144,594,25,90,go,5,19ptc,0,0,0,0,0,Omission,0,41,64,361,530,169,1.0,1.4,BBAA
3.8.10,Windows,93022,10:16:33,1,0,SART,3,nogo,145,595,25,90,nogo,3,16ptc,0,1,0,0,0,NoGo Success,0,42,65,361,530,169,1.0,1.4,BBAA
3.8.10,Windows,93022,10:16:33,1,0,SART,3,go,146,596,25,90,go,4,21ptc,0,0,0,0,0,Omission,0,42,65,362,531,169,1.0,1.4,BBAA
3.8.10,Windows,93022,10:16:33,1,0,SART,3,go,147,597,25,90,go,2,16ptc,0,0,0,0,0,Omission,0,42,65,363,532,169,1.0,1.4,BBAA
3.8.10,Windows,93022,10:16:33,1,0,SART,3,go,148,598,25,90,go,7,19ptc,0,0,0,0,0,Omission,0,42,65,364,533,169,0.0,1.4,BBAA
3.8.10,Windows,93022,10:16:33,1,0,SART,3,go,149,599,25,90,go,2,13ptc,0,0,0,0,0,Omission,0,42,65,365,534,169,0.0,1.4,BBAA
3.8.10,Windows,93022,10:16:33,1,0,SART,3,go,150,600,25,90,go,1,10ptc,0,0,0,0,0,Omission,0,42,65,366,535,169,1.0,1.4,BBAA
3.8.10,Windows,93022,10:16:33,1,0,SART,3,go,151,601,25,90,go,1,21ptc,0,0,0,0,0,Omission,0,42,65,367,536,169,1.0,1.4,BBAA
3.8.10,Windows,93022,10:16:33,1,0,SART,3,nogo,152,602,25,90,nogo,3,19ptc,0,1,0,0,0,NoGo Success,0,43,66,367,536,169,1.0,1.4,BBAA
3.8.10,Windows,93022,10:16:33,1,0,SART,3,go,153,603,25,90,go,2,13ptc,0,0,0,0,0,Omission,0,43,66,368,537,169,1.0,1.4,BBAA
3.8.10,Windows,93022,10:16:33,1,0,SART,3,go,154,604,25,90,go,4,16ptc,0,0,0,0,0,Omission,0,43,66,369,538,169,1.0,1.4,BBAA
3.8.10,Windows,93022,10:16:33,1,0,SART,3,go,155,605,25,90,go,1,10ptc,0,0,0,0,0,Omission,0,43,66,370,539,169,0.0,1.4,BBAA
3.8.10,Windows,93022,10:16:33,1,0,SART,3,go,156,606,25,90,go,2,16ptc,0,0,0,0,0,Omission,0,43,66,371,540,169,1.0,1.4,BBAA
3.8.10,Windows,93022,10:16:33,1,0,SART,3,go,157,607,25,90,go,5,10ptc,0,0,0,0,0,Omission,0,43,66,372,541,169,1.0,1.4,BBAA
3.8.10,Windows,93022,10:16:33,1,0,SART,3,nogo,158,608,25,90,nogo,3,21ptc,0,1,0,0,0,NoGo Success,0,44,67,372,541,169,1.0,1.4,BBAA
3.8.10,Windows,93022,10:16:33,1,0,SART,3,go,159,609,25,90,go,9,13ptc,0,0,0,0,0,Omission,0,44,67,373,542,169,1.0,1.4,BBAA
3.8.10,Windows,93022,10:16:33,1,0,SART,3,go,160,610,25,90,go,6,19ptc,0,0,0,0,0,Omission,0,44,67,374,543,169,1.0,1.4,BBAA
3.8.10,Windows,93022,10:16:33,1,0,SART,3,go,161,611,25,90,go,4,19ptc,0,0,0,0,0,Omission,0,44,67,375,544,169,0.0,1.4,BBAA
3.8.10,Windows,93022,10:16:33,1,0,SART,3,go,162,612,25,90,go,9,16ptc,0,0,0,0,0,Omission,0,44,67,376,545,169,0.0,1.4,BBAA
3.8.10,Windows,93022,10:16:33,1,0,SART,3,go,163,613,25,90,go,7,21ptc,0,0,0,0,0,Omission,0,44,67,377,546,169,0.0,1.4,BBAA
3.8.10,Windows,93022,10:16:33,1,0,SART,3,go,164,614,25,90,go,1,10ptc,0,0,0,0,0,Omission,0,44,67,378,547,169,0.0,1.4,BBAA
3.8.10,Windows,93022,10:16:33,1,0,SART,3,go,165,615,25,90,go,1,13ptc,0,0,0,0,0,Omission,0,44,67,379,548,169,1.0,1.4,BBAA
3.8.10,Windows,93022,10:16:33,1,0,SART,3,go,166,616,25,90,go,2,10ptc,0,0,0,0,0,Omission,0,44,67,380,549,169,1.0,1.4,BBAA
3.8.10,Windows,93022,10:16:33,1,0,SART,3,nogo,167,617,25,90,nogo,3,19ptc,0,1,0,0,0,NoGo Success,0,45,68,380,549,169,1.0,1.4,BBAA
3.8.10,Windows,93022,10:16:33,1,0,SART,3,go,168,618,25,90,go,5,13ptc,0,0,0,0,0,Omission,0,45,68,381,550,169,1.0,1.4,BBAA
3.8.10,Windows,93022,10:16:33,1,0,SART,3,go,169,619,25,90,go,4,21ptc,0,0,0,0,0,Omission,0,45,68,382,551,169,1.0,1.4,BBAA
3.8.10,Windows,93022,10:16:33,1,0,SART,3,go,170,620,25,90,go,1,16ptc,0,0,0,0,0,Omission,0,45,68,383,552,169,0.0,1.4,BBAA
3.8.10,Windows,93022,10:16:33,1,0,SART,3,go,171,621,25,90,go,8,16ptc,0,0,0,0,0,Omission,0,45,68,384,553,169,0.0,1.4,BBAA
3.8.10,Windows,93022,10:16:33,1,0,SART,3,go,172,622,25,90,go,6,21ptc,0,0,0,0,0,Omission,0,45,68,385,554,169,0.0,1.4,BBAA
3.8.10,Windows,93022,10:16:33,1,0,SART,3,go,173,623,25,90,go,9,13ptc,0,0,0,0,0,Omission,0,45,68,386,555,169,0.0,1.4,BBAA
3.8.10,Windows,93022,10:16:33,1,0,SART,3,go,174,624,25,90,go,1,19ptc,0,0,0,0,0,Omission,0,45,68,387,556,169,0.0,1.4,BBAA
3.8.10,Windows,93022,10:16:33,1,0,SART,3,go,175,625,25,90,go,7,10ptc,0,0,0,0,0,Omission,0,45,68,388,557,169,1.0,1.4,BBAA
3.8.10,Windows,93022,10:16:33,1,0,SART,3,go,176,626,25,90,go,8,13ptc,0,0,0,0,0,Omission,0,45,68,389,558,169,1.0,1.4,BBAA
3.8.10,Windows,93022,10:16:33,1,0,SART,3,nogo,177,627,25,90,nogo,3,10ptc,0,1,0,0,0,NoGo Success,0,46,69,389,558,169,1.0,1.4,BBAA
3.8.10,Windows,93022,10:16:33,1,0,SART,3,nogo,178,628,25,90,nogo,3,19ptc,0,1,0,0,0,NoGo Success,0,47,70,389,558,169,1.0,1.4,BBAA
3.8.10,Windows,93022,10:16:33,1,0,SART,3,go,179,629,25,90,go,9,21ptc,0,0,0,0,0,Omission,0,47,70,390,559,169,1.0,1.4,BBAA
3.8.10,Windows,93022,10:16:33,1,0,SART,3,go,180,630,25,90,go,1,16ptc,0,0,0,0,0,Omission,0,47,70,391,560,169,1.0,1.4,BBAA
3.8.10,Windows,93022,10:16:33,1,0,SART,3,go,181,631,25,90,go,1,16ptc,0,0,0,0,0,Omission,0,47,70,392,561,169,0.0,1.4,BBAA
3.8.10,Windows,93022,10:16:33,1,0,SART,3,go,182,632,25,90,go,9,19ptc,0,0,0,0,0,Omission,0,47,70,393,562,169,0.0,1.4,BBAA
3.8.10,Windows,93022,10:16:33,1,0,SART,3,go,183,633,25,90,go,7,13ptc,0,0,0,0,0,Omission,0,47,70,394,563,169,0.0,1.4,BBAA
3.8.10,Windows,93022,10:16:33,1,0,SART,3,go,184,634,25,90,go,2,21ptc,0,0,0,0,0,Omission,0,47,70,395,564,169,0.0,1.4,BBAA
3.8.10,Windows,93022,10:16:33,1,0,SART,3,go,185,635,25,90,go,7,10ptc,0,0,0,0,0,Omission,0,47,70,396,565,169,0.0,1.4,BBAA
3.8.10,Windows,93022,10:16:33,1,0,SART,3,go,186,636,25,90,go,5,16ptc,0,0,0,0,0,Omission,0,47,70,397,566,169,0.0,1.4,BBAA
3.8.10,Windows,93022,10:16:33,1,0,SART,3,go,187,637,25,90,go,8,10ptc,0,0,0,0,0,Omission,0,47,70,398,567,169,1.0,1.4,BBAA
3.8.10,Windows,93022,10:16:33,1,0,SART,3,go,188,638,25,90,go,8,19ptc,0,0,0,0,0,Omission,0,47,70,399,568,169,1.0,1.4,BBAA
3.8.10,Windows,93022,10:16:33,1,0,SART,3,nogo,189,639,25,90,nogo,3,21ptc,0,1,0,0,0,NoGo Success,0,48,71,399,568,169,1.0,1.4,BBAA
3.8.10,Windows,93022,10:16:33,1,0,SART,3,go,190,640,25,90,go,9,13ptc,0,0,0,0,0,Omission,0,48,71,400,569,169,1.0,1.4,BBAA
3.8.10,Windows,93022,10:16:33,1,0,SART,3,go,191,641,25,90,go,2,10ptc,0,0,0,0,0,Omission,0,48,71,401,570,169,1.0,1.4,BBAA
3.8.10,Windows,93022,10:16:33,1,0,SART,3,go,192,642,25,90,go,8,13ptc,0,0,0,0,0,Omission,0,48,71,402,571,169,0.0,1.4,BBAA
3.8.10,Windows,93022,10:16:33,1,0,SART,3,go,193,643,25,90,go,6,21ptc,0,0,0,0,0,Omission,0,48,71,403,572,169,0.0,1.4,BBAA
3.8.10,Windows,93022,10:16:33,1,0,SART,3,go,194,644,25,90,go,7,16ptc,0,0,0,0,0,Omission,0,48,71,404,573,169,0.0,1.4,BBAA
3.8.10,Windows,93022,10:16:33,1,0,SART,3,go,195,645,25,90,go,4,19ptc,0,0,0,0,0,Omission,0,48,71,405,574,169,0.0,1.4,BBAA
3.8.10,Windows,93022,10:16:33,1,0,SART,3,go,196,646,25,90,go,6,19ptc,0,0,0,0,0,Omission,0,48,71,406,575,169,0.0,1.4,BBAA
3.8.10,Windows,93022,10:16:33,1,0,SART,3,go,197,647,25,90,go,9,10ptc,0,0,0,0,0,Omission,0,48,71,407,576,169,0.0,1.4,BBAA
3.8.10,Windows,93022,10:16:33,1,0,SART,3,go,198,648,25,90,go,6,21ptc,0,0,0,0,0,Omission,0,48,71,408,577,169,0.0,1.4,BBAA
3.8.10,Windows,93022,10:16:33,1,0,SART,3,go,199,649,25,90,go,1,13ptc,0,0,0,0,0,Omission,0,48,71,409,578,169,1.0,1.4,BBAA
3.8.10,Windows,93022,10:16:33,1,0,SART,3,go,200,650,25,90,go,5,16ptc,0,0,0,0,0,Omission,0,48,71,410,579,169,1.0,1.4,BBAA
3.8.10,Windows,93022,10:16:33,1,0,SART,3,nogo,201,651,25,90,nogo,3,13ptc,0,1,0,0,0,NoGo Success,0,49,72,410,579,169,1.0,1.4,BBAA
3.8.10,Windows,93022,10:16:33,1,0,SART,3,go,202,652,25,90,go,9,21ptc,0,0,0,0,0,Omission,0,49,72,411,580,169,1.0,1.4,BBAA
3.8.10,Windows,93022,10:16:33,1,0,SART,3,nogo,203,653,25,90,nogo,3,19ptc,0,1,0,0,0,NoGo Success,0,50,73,411,580,169,1.0,1.4,BBAA
3.8.10,Windows,93022,10:16:33,1,0,SART,3,go,204,654,25,90,go,2,16ptc,0,0,0,0,0,Omission,0,50,73,412,581,169,1.0,1.4,BBAA
3.8.10,Windows,93022,10:16:33,1,0,SART,3,go,205,655,25,90,go,5,10ptc,0,0,0,0,0,Omission,0,50,73,413,582,169,1.0,1.4,BBAA
3.8.10,Windows,93022,10:16:33,1,0,SART,3,go,206,656,25,90,go,8,19ptc,0,0,0,0,0,Omission,0,50,73,414,583,169,1.0,1.4,BBAA
3.8.10,Windows,93022,10:16:33,1,0,SART,3,nogo,207,657,25,90,nogo,3,10ptc,0,1,0,0,0,NoGo Success,0,51,74,414,583,169,1.0,1.4,BBAA
3.8.10,Windows,93022,10:16:33,1,0,SART,3,go,208,658,25,90,go,6,16ptc,0,0,0,0,0,Omission,0,51,74,415,584,169,1.0,1.4,BBAA
3.8.10,Windows,93022,10:16:33,1,0,SART,3,go,209,659,25,90,go,8,13ptc,0,0,0,0,0,Omission,0,51,74,416,585,169,1.0,1.4,BBAA
3.8.10,Windows,93022,10:16:33,1,0,SART,3,go,210,660,25,90,go,5,21ptc,0,0,0,0,0,Omission,0,51,74,417,586,169,0.0,1.4,BBAA
3.8.10,Windows,93022,10:16:33,1,0,SART,3,go,211,661,25,90,go,5,21ptc,0,0,0,0,0,Omission,0,51,74,418,587,169,0.0,1.4,BBAA
3.8.10,Windows,93022,10:16:33,1,0,SART,3,go,212,662,25,90,go,9,10ptc,0,0,0,0,0,Omission,0,51,74,419,588,169,0.0,1.4,BBAA
3.8.10,Windows,93022,10:16:33,1,0,SART,3,go,213,663,25,90,go,9,19ptc,0,0,0,0,0,Omission,0,51,74,420,589,169,0.0,1.4,BBAA
3.8.10,Windows,93022,10:16:33,1,0,SART,3,go,214,664,25,90,go,6,13ptc,0,0,0,0,0,Omission,0,51,74,421,590,169,0.0,1.4,BBAA
3.8.10,Windows,93022,10:16:33,1,0,SART,3,go,215,665,25,90,go,2,16ptc,0,0,0,0,0,Omission,0,51,74,422,591,169,0.0,1.4,BBAA
3.8.10,Windows,93022,10:16:33,1,0,SART,3,go,216,666,25,90,go,8,16ptc,0,0,0,0,0,Omission,0,51,74,423,592,169,0.0,1.4,BBAA
3.8.10,Windows,93022,10:16:33,1,0,SART,3,go,217,667,25,90,go,6,10ptc,0,0,0,0,0,Omission,0,51,74,424,593,169,1.0,1.4,BBAA
3.8.10,Windows,93022,10:16:33,1,0,SART,3,go,218,668,25,90,go,1,19ptc,0,0,0,0,0,Omission,0,51,74,425,594,169,1.0,1.4,BBAA
3.8.10,Windows,93022,10:16:33,1,0,SART,3,nogo,219,669,25,90,nogo,3,13ptc,0,1,0,0,0,NoGo Success,0,52,75,425,594,169,1.0,1.4,BBAA
3.8.10,Windows,93022,10:16:33,1,0,SART,3,go,220,670,25,90,go,8,21ptc,0,0,0,0,0,Omission,0,52,75,426,595,169,1.0,1.4,BBAA
3.8.10,Windows,93022,10:16:33,1,0,SART,3,go,221,671,25,90,go,9,13ptc,0,0,0,0,0,Omission,0,52,75,427,596,169,1.0,1.4,BBAA
3.8.10,Windows,93022,10:16:33,1,0,SART,3,go,222,672,25,90,go,5,21ptc,0,0,0,0,0,Omission,0,52,75,428,597,169,0.0,1.4,BBAA
3.8.10,Windows,93022,10:16:33,1,0,SART,3,go,223,673,25,90,go,9,16ptc,0,0,0,0,0,Omission,0,52,75,429,598,169,0.0,1.4,BBAA
3.8.10,Windows,93022,10:16:33,1,0,SART,3,go,224,674,25,90,go,6,10ptc,0,0,0,0,0,Omission,0,52,75,430,599,169,0.0,1.4,BBAA
3.8.10,Windows,93022,10:16:33,1,0,SART,3,go,225,675,25,90,go,4,19ptc,0,0,0,0,0,Omission,0,52,75,431,600,169,0.0,1.4,BBAA
3.8.10,Windows,93022,10:16:33,1,0,SART,4,go,1,676,25,90,go,8,16ptc,0,0,0,0,0,Omission,0,52,75,432,601,169,0.0,1.4,BBAA
3.8.10,Windows,93022,10:16:33,1,0,SART,4,nogo,2,677,25,90,nogo,3,19ptc,0,1,0,0,0,NoGo Success,0,53,76,432,601,169,0.0,1.4,BBAA
3.8.10,Windows,93022,10:16:33,1,0,SART,4,go,3,678,25,90,go,2,13ptc,0,0,0,0,0,Omission,0,53,76,433,602,169,1.0,1.4,BBAA
3.8.10,Windows,93022,10:16:33,1,0,SART,4,go,4,679,25,90,go,6,10ptc,0,0,0,0,0,Omission,0,53,76,434,603,169,1.0,1.4,BBAA
3.8.10,Windows,93022,10:16:33,1,0,SART,4,nogo,5,680,25,90,nogo,3,21ptc,0,1,0,0,0,NoGo Success,0,54,77,434,603,169,1.0,1.4,BBAA
3.8.10,Windows,93022,10:16:33,1,0,SART,4,go,6,681,25,90,go,6,13ptc,0,0,0,0,0,Omission,0,54,77,435,604,169,1.0,1.4,BBAA
3.8.10,Windows,93022,10:16:33,1,0,SART,4,go,7,682,25,90,go,6,10ptc,0,0,0,0,0,Omission,0,54,77,436,605,169,1.0,1.4,BBAA
3.8.10,Windows,93022,10:16:33,1,0,SART,4,go,8,683,25,90,go,5,16ptc,0,0,0,0,0,Omission,0,54,77,437,606,169,0.0,1.4,BBAA
3.8.10,Windows,93022,10:16:33,1,0,SART,4,go,9,684,25,90,go,2,19ptc,0,0,0,0,0,Omission,0,54,77,438,607,169,0.0,1.4,BBAA
3.8.10,Windows,93022,10:16:33,1,0,SART,4,go,10,685,25,90,go,5,21ptc,0,0,0,0,0,Omission,0,54,77,439,608,169,0.0,1.4,BBAA
3.8.10,Windows,93022,10:16:33,1,0,SART,4,go,11,686,25,90,go,7,16ptc,0,0,0,0,0,Omission,0,54,77,440,609,169,0.0,1.4,BBAA
3.8.10,Windows,93022,10:16:33,1,0,SART,4,go,12,687,25,90,go,8,10ptc,0,0,0,0,0,Omission,0,54,77,441,610,169,0.0,1.4,BBAA
3.8.10,Windows,93022,10:16:33,1,0,SART,4,go,13,688,25,90,go,1,13ptc,0,0,0,0,0,Omission,0,54,77,442,611,169,0.0,1.4,BBAA
3.8.10,Windows,93022,10:16:33,1,0,SART,4,go,14,689,25,90,go,8,21ptc,0,0,0,0,0,Omission,0,54,77,443,612,169,0.0,1.4,BBAA
3.8.10,Windows,93022,10:16:33,1,0,SART,4,go,15,690,25,90,go,7,19ptc,0,0,0,0,0,Omission,0,54,77,444,613,169,0.0,1.4,BBAA
3.8.10,Windows,93022,10:16:33,1,0,SART,4,go,16,691,25,90,go,5,10ptc,0,0,0,0,0,Omission,0,54,77,445,614,169,0.0,1.4,BBAA
3.8.10,Windows,93022,10:16:33,1,0,SART,4,go,17,692,25,90,go,6,19ptc,0,0,0,0,0,Omission,0,54,77,446,615,169,0.0,1.4,BBAA
3.8.10,Windows,93022,10:16:33,1,0,SART,4,go,18,693,25,90,go,1,13ptc,0,0,0,0,0,Omission,0,54,77,447,616,169,1.0,1.4,BBAA
3.8.10,Windows,93022,10:16:33,1,0,SART,4,go,19,694,25,90,go,9,21ptc,0,0,0,0,0,Omission,0,54,77,448,617,169,1.0,1.4,BBAA
3.8.10,Windows,93022,10:16:33,1,0,SART,4,nogo,20,695,25,90,nogo,3,16ptc,0,1,0,0,0,NoGo Success,0,55,78,448,617,169,1.0,1.4,BBAA
3.8.10,Windows,93022,10:16:33,1,0,SART,4,go,21,696,25,90,go,7,16ptc,0,0,0,0,0,Omission,0,55,78,449,618,169,1.0,1.4,BBAA
3.8.10,Windows,93022,10:16:33,1,0,SART,4,go,22,697,25,90,go,6,19ptc,0,0,0,0,0,Omission,0,55,78,450,619,169,1.0,1.4,BBAA
3.8.10,Windows,93022,10:16:33,1,0,SART,4,go,23,698,25,90,go,2,13ptc,0,0,0,0,0,Omission,0,55,78,451,620,169,0.0,1.4,BBAA
3.8.10,Windows,93022,10:16:33,1,0,SART,4,go,24,699,25,90,go,5,21ptc,0,0,0,0,0,Omission,0,55,78,452,621,169,0.0,1.4,BBAA
3.8.10,Windows,93022,10:16:33,1,0,SART,4,go,25,700,25,90,go,8,10ptc,0,0,0,0,0,Omission,0,55,78,453,622,169,0.0,1.4,BBAA
3.8.10,Windows,93022,10:16:33,1,0,SART,4,go,26,701,25,90,go,9,21ptc,0,0,0,0,0,Omission,0,55,78,454,623,169,0.0,1.4,BBAA
3.8.10,Windows,93022,10:16:33,1,0,SART,4,go,27,702,25,90,go,2,10ptc,0,0,0,0,0,Omission,0,55,78,455,624,169,0.0,1.4,BBAA
3.8.10,Windows,93022,10:16:33,1,0,SART,4,go,28,703,25,90,go,8,19ptc,0,0,0,0,0,Omission,0,55,78,456,625,169,0.0,1.4,BBAA
3.8.10,Windows,93022,10:16:33,1,0,SART,4,go,29,704,25,90,go,6,16ptc,0,0,0,0,0,Omission,0,55,78,457,626,169,0.0,1.4,BBAA
3.8.10,Windows,93022,10:16:33,1,0,SART,4,go,30,705,25,90,go,9,13ptc,0,0,0,0,0,Omission,0,55,78,458,627,169,1.0,1.4,BBAA
3.8.10,Windows,93022,10:16:33,1,0,SART,4,go,31,706,25,90,go,7,13ptc,0,0,0,0,0,Omission,0,55,78,459,628,169,1.0,1.4,BBAA
3.8.10,Windows,93022,10:16:33,1,0,SART,4,nogo,32,707,25,90,nogo,3,21ptc,0,1,0,0,0,NoGo Success,0,56,79,459,628,169,1.0,1.4,BBAA
3.8.10,Windows,93022,10:16:33,1,0,SART,4,go,33,708,25,90,go,1,10ptc,0,0,0,0,0,Omission,0,56,79,460,629,169,1.0,1.4,BBAA
3.8.10,Windows,93022,10:16:33,1,0,SART,4,go,34,709,25,90,go,8,16ptc,0,0,0,0,0,Omission,0,56,79,461,630,169,1.0,1.4,BBAA
3.8.10,Windows,93022,10:16:33,1,0,SART,4,go,35,710,25,90,go,5,19ptc,0,0,0,0,0,Omission,0,56,79,462,631,169,1.0,1.4,BBAA
3.8.10,Windows,93022,10:16:33,1,0,SART,4,nogo,36,711,25,90,nogo,3,16ptc,0,1,0,0,0,NoGo Success,0,57,80,462,631,169,1.0,1.4,BBAA
3.8.10,Windows,93022,10:16:33,1,0,SART,4,go,37,712,25,90,go,4,19ptc,0,0,0,0,0,Omission,0,57,80,463,632,169,1.0,1.4,BBAA
3.8.10,Windows,93022,10:16:33,1,0,SART,4,go,38,713,25,90,go,2,13ptc,0,0,0,0,0,Omission,0,57,80,464,633,169,1.0,1.4,BBAA
3.8.10,Windows,93022,10:16:33,1,0,SART,4,nogo,39,714,25,90,nogo,3,10ptc,0,1,0,0,0,NoGo Success,0,58,81,464,633,169,1.0,1.4,BBAA
3.8.10,Windows,93022,10:16:33,1,0,SART,4,nogo,40,715,25,90,nogo,3,21ptc,0,1,0,0,0,NoGo Success,0,59,82,464,633,169,1.0,1.4,BBAA
3.8.10,Windows,93022,10:16:33,1,0,SART,4,nogo,41,716,25,90,nogo,3,13ptc,0,1,0,0,0,NoGo Success,0,60,83,464,633,169,1.0,1.4,BBAA
3.8.10,Windows,93022,10:16:33,1,0,SART,4,go,42,717,25,90,go,2,10ptc,0,0,0,0,0,Omission,0,60,83,465,634,169,1.0,1.4,BBAA
3.8.10,Windows,93022,10:16:33,1,0,SART,4,nogo,43,718,25,90,nogo,3,21ptc,0,1,0,0,0,NoGo Success,0,61,84,465,634,169,1.0,1.4,BBAA
3.8.10,Windows,93022,10:16:33,1,0,SART,4,go,44,719,25,90,go,8,19ptc,0,0,0,0,0,Omission,0,61,84,466,635,169,1.0,1.4,BBAA
3.8.10,Windows,93022,10:16:33,1,0,SART,4,go,45,720,25,90,go,7,16ptc,0,0,0,0,0,Omission,0,61,84,467,636,169,1.0,1.4,BBAA
3.8.10,Windows,93022,10:16:33,1,0,SART,4,go,46,721,25,90,go,7,19ptc,0,0,0,0,0,Omission,0,61,84,468,637,169,0.0,1.4,BBAA
3.8.10,Windows,93022,10:16:33,1,0,SART,4,go,47,722,25,90,go,9,13ptc,0,0,0,0,0,Omission,0,61,84,469,638,169,0.0,1.4,BBAA
3.8.10,Windows,93022,10:16:33,1,0,SART,4,go,48,723,25,90,go,7,10ptc,0,0,0,0,0,Omission,0,61,84,470,639,169,0.0,1.4,BBAA
3.8.10,Windows,93022,10:16:33,1,0,SART,4,go,49,724,25,90,go,7,16ptc,0,0,0,0,0,Omission,0,61,84,471,640,169,0.0,1.4,BBAA
3.8.10,Windows,93022,10:16:33,1,0,SART,4,go,50,725,25,90,go,2,21ptc,0,0,0,0,0,Omission,0,61,84,472,641,169,0.0,1.4,BBAA
3.8.10,Windows,93022,10:16:33,1,0,SART,4,go,51,726,25,90,go,9,10ptc,0,0,0,0,0,Omission,0,61,84,473,642,169,0.0,1.4,BBAA
3.8.10,Windows,93022,10:16:33,1,0,SART,4,go,52,727,25,90,go,6,16ptc,0,0,0,0,0,Omission,0,61,84,474,643,169,0.0,1.4,BBAA
3.8.10,Windows,93022,10:16:33,1,0,SART,4,go,53,728,25,90,go,7,21ptc,0,0,0,0,0,Omission,0,61,84,475,644,169,0.0,1.4,BBAA
3.8.10,Windows,93022,10:16:33,1,0,SART,4,go,54,729,25,90,go,7,19ptc,0,0,0,0,0,Omission,0,61,84,476,645,169,0.0,1.4,BBAA
3.8.10,Windows,93022,10:16:33,1,0,SART,4,go,55,730,25,90,go,5,13ptc,0,0,0,0,0,Omission,0,61,84,477,646,169,0.0,1.4,BBAA
3.8.10,Windows,93022,10:16:33,1,0,SART,4,go,56,731,25,90,go,5,21ptc,0,0,0,0,0,Omission,0,61,84,478,647,169,1.0,1.4,BBAA
3.8.10,Windows,93022,10:16:33,1,0,SART,4,go,57,732,25,90,go,4,13ptc,0,0,0,0,0,Omission,0,61,84,479,648,169,1.0,1.4,BBAA
3.8.10,Windows,93022,10:16:33,1,0,SART,4,nogo,58,733,25,90,nogo,3,19ptc,0,1,0,0,0,NoGo Success,0,62,85,479,648,169,1.0,1.4,BBAA
3.8.10,Windows,93022,10:16:33,1,0,SART,4,go,59,734,25,90,go,5,16ptc,0,0,0,0,0,Omission,0,62,85,480,649,169,1.0,1.4,BBAA
3.8.10,Windows,93022,10:16:33,1,0,SART,4,go,60,735,25,90,go,8,10ptc,0,0,0,0,0,Omission,0,62,85,481,650,169,1.0,1.4,BBAA
3.8.10,Windows,93022,10:16:33,1,0,SART,4,go,61,736,25,90,go,2,16ptc,0,0,0,0,0,Omission,0,62,85,482,651,169,0.0,1.4,BBAA
3.8.10,Windows,93022,10:16:33,1,0,SART,4,go,62,737,25,90,go,7,19ptc,0,0,0,0,0,Omission,0,62,85,483,652,169,0.0,1.4,BBAA
3.8.10,Windows,93022,10:16:33,1,0,SART,4,go,63,738,25,90,go,8,21ptc,0,0,0,0,0,Omission,0,62,85,484,653,169,0.0,1.4,BBAA
3.8.10,Windows,93022,10:16:33,1,0,SART,4,go,64,739,25,90,go,9,10ptc,0,0,0,0,0,Omission,0,62,85,485,654,169,0.0,1.4,BBAA
3.8.10,Windows,93022,10:16:33,1,0,SART,4,go,65,740,25,90,go,5,13ptc,0,0,0,0,0,Omission,0,62,85,486,655,169,0.0,1.4,BBAA
3.8.10,Windows,93022,10:16:33,1,0,SART,4,go,66,741,25,90,go,9,16ptc,0,0,0,0,0,Omission,0,62,85,487,656,169,0.0,1.4,BBAA
3.8.10,Windows,93022,10:16:33,1,0,SART,4,go,67,742,25,90,go,2,19ptc,0,0,0,0,0,Omission,0,62,85,488,657,169,0.0,1.4,BBAA
3.8.10,Windows,93022,10:16:33,1,0,SART,4,go,68,743,25,90,go,8,21ptc,0,0,0,0,0,Omission,0,62,85,489,658,169,0.0,1.4,BBAA
3.8.10,Windows,93022,10:16:33,1,0,SART,4,go,69,744,25,90,go,4,10ptc,0,0,0,0,0,Omission,0,62,85,490,659,169,0.0,1.4,BBAA
3.8.10,Windows,93022,10:16:33,1,0,SART,4,go,70,745,25,90,go,1,13ptc,0,0,0,0,0,Omission,0,62,85,491,660,169,0.0,1.4,BBAA
3.8.10,Windows,93022,10:16:33,1,0,SART,4,go,71,746,25,90,go,1,16ptc,0,0,0,0,0,Omission,0,62,85,492,661,169,1.0,1.4,BBAA
3.8.10,Windows,93022,10:16:33,1,0,SART,4,go,72,747,25,90,go,8,10ptc,0,0,0,0,0,Omission,0,62,85,493,662,169,1.0,1.4,BBAA
3.8.10,Windows,93022,10:16:33,1,0,SART,4,nogo,73,748,25,90,nogo,3,13ptc,0,1,0,0,0,NoGo Success,0,63,86,493,662,169,1.0,1.4,BBAA
3.8.10,Windows,93022,10:16:33,1,0,SART,4,nogo,74,749,25,90,nogo,3,19ptc,0,1,0,0,0,NoGo Success,0,64,87,493,662,169,1.0,1.4,BBAA
3.8.10,Windows,93022,10:16:33,1,0,SART,4,go,75,750,25,90,go,2,21ptc,0,0,0,0,0,Omission,0,64,87,494,663,169,1.0,1.4,BBAA
3.8.10,Windows,93022,10:16:33,1,0,SART,4,go,76,751,25,90,go,6,21ptc,0,0,0,0,0,Omission,0,64,87,495,664,169,1.0,1.4,BBAA
3.8.10,Windows,93022,10:16:33,1,0,SART,4,go,77,752,25,90,go,9,13ptc,0,0,0,0,0,Omission,0,64,87,496,665,169,0.0,1.4,BBAA
3.8.10,Windows,93022,10:16:33,1,0,SART,4,go,78,753,25,90,go,7,16ptc,0,0,0,0,0,Omission,0,64,87,497,666,169,0.0,1.4,BBAA
3.8.10,Windows,93022,10:16:33,1,0,SART,4,go,79,754,25,90,go,6,19ptc,0,0,0,0,0,Omission,0,64,87,498,667,169,0.0,1.4,BBAA
3.8.10,Windows,93022,10:16:33,1,0,SART,4,go,80,755,25,90,go,9,10ptc,0,0,0,0,0,Omission,0,64,87,499,668,169,0.0,1.4,BBAA
3.8.10,Windows,93022,10:16:33,1,0,SART,4,go,81,756,25,90,go,9,13ptc,0,0,0,0,0,Omission,0,64,87,500,669,169,1.0,1.4,BBAA
3.8.10,Windows,93022,10:16:33,1,0,SART,4,go,82,757,25,90,go,7,19ptc,0,0,0,0,0,Omission,0,64,87,501,670,169,1.0,1.4,BBAA
3.8.10,Windows,93022,10:16:33,1,0,SART,4,nogo,83,758,25,90,nogo,3,10ptc,0,1,0,0,0,NoGo Success,0,65,88,501,670,169,1.0,1.4,BBAA
3.8.10,Windows,93022,10:16:33,1,0,SART,4,go,84,759,25,90,go,6,21ptc,0,0,0,0,0,Omission,0,65,88,502,671,169,1.0,1.4,BBAA
3.8.10,Windows,93022,10:16:33,1,0,SART,4,go,85,760,25,90,go,1,16ptc,0,0,0,0,0,Omission,0,65,88,503,672,169,1.0,1.4,BBAA
3.8.10,Windows,93022,10:16:33,1,0,SART,4,go,86,761,25,90,go,2,21ptc,0,0,0,0,0,Omission,0,65,88,504,673,169,0.0,1.4,BBAA
3.8.10,Windows,93022,10:16:33,1,0,SART,4,go,87,762,25,90,go,6,19ptc,0,0,0,0,0,Omission,0,65,88,505,674,169,0.0,1.4,BBAA
3.8.10,Windows,93022,10:16:33,1,0,SART,4,go,88,763,25,90,go,4,13ptc,0,0,0,0,0,Omission,0,65,88,506,675,169,0.0,1.4,BBAA
3.8.10,Windows,93022,10:16:33,1,0,SART,4,go,89,764,25,90,go,8,10ptc,0,0,0,0,0,Omission,0,65,88,507,676,169,0.0,1.4,BBAA
3.8.10,Windows,93022,10:16:33,1,0,SART,4,go,90,765,25,90,go,6,16ptc,0,0,0,0,0,Omission,0,65,88,508,677,169,1.0,1.4,BBAA
3.8.10,Windows,93022,10:16:33,1,0,SART,4,go,91,766,25,90,go,1,19ptc,0,0,0,0,0,Omission,0,65,88,509,678,169,1.0,1.4,BBAA
3.8.10,Windows,93022,10:16:33,1,0,SART,4,nogo,92,767,25,90,nogo,3,10ptc,0,1,0,0,0,NoGo Success,0,66,89,509,678,169,1.0,1.4,BBAA
3.8.10,Windows,93022,10:16:33,1,0,SART,4,go,93,768,25,90,go,8,21ptc,0,0,0,0,0,Omission,0,66,89,510,679,169,1.0,1.4,BBAA
3.8.10,Windows,93022,10:16:33,1,0,SART,4,nogo,94,769,25,90,nogo,3,13ptc,0,1,0,0,0,NoGo Success,0,67,90,510,679,169,1.0,1.4,BBAA
3.8.10,Windows,93022,10:16:33,1,0,SART,4,go,95,770,25,90,go,5,16ptc,0,0,0,0,0,Omission,0,67,90,511,680,169,1.0,1.4,BBAA
3.8.10,Windows,93022,10:16:33,1,0,SART,4,go,96,771,25,90,go,4,19ptc,0,0,0,0,0,Omission,0,67,90,512,681,169,1.0,1.4,BBAA
3.8.10,Windows,93022,10:16:33,1,0,SART,4,go,97,772,25,90,go,5,21ptc,0,0,0,0,0,Omission,0,67,90,513,682,169,0.0,1.4,BBAA
3.8.10,Windows,93022,10:16:33,1,0,SART,4,go,98,773,25,90,go,2,13ptc,0,0,0,0,0,Omission,0,67,90,514,683,169,0.0,1.4,BBAA
3.8.10,Windows,93022,10:16:33,1,0,SART,4,go,99,774,25,90,go,1,16ptc,0,0,0,0,0,Omission,0,67,90,515,684,169,1.0,1.4,BBAA
3.8.10,Windows,93022,10:16:33,1,0,SART,4,go,100,775,25,90,go,9,10ptc,0,0,0,0,0,Omission,0,67,90,516,685,169,1.0,1.4,BBAA
3.8.10,Windows,93022,10:16:33,1,0,SART,4,nogo,101,776,25,90,nogo,3,10ptc,0,1,0,0,0,NoGo Success,0,68,91,516,685,169,1.0,1.4,BBAA
3.8.10,Windows,93022,10:16:33,1,0,SART,4,go,102,777,25,90,go,7,21ptc,0,0,0,0,0,Omission,0,68,91,517,686,169,1.0,1.4,BBAA
3.8.10,Windows,93022,10:16:33,1,0,SART,4,go,103,778,25,90,go,6,16ptc,0,0,0,0,0,Omission,0,68,91,518,687,169,1.0,1.4,BBAA
3.8.10,Windows,93022,10:16:33,1,0,SART,4,go,104,779,25,90,go,1,13ptc,0,0,0,0,0,Omission,0,68,91,519,688,169,0.0,1.4,BBAA
3.8.10,Windows,93022,10:16:33,1,0,SART,4,go,105,780,25,90,go,1,19ptc,0,0,0,0,0,Omission,0,68,91,520,689,169,0.0,1.4,BBAA
3.8.10,Windows,93022,10:16:33,1,0,SART,4,go,106,781,25,90,go,9,21ptc,0,0,0,0,0,Omission,0,68,91,521,690,169,0.0,1.4,BBAA
3.8.10,Windows,93022,10:16:33,1,0,SART,4,go,107,782,25,90,go,7,13ptc,0,0,0,0,0,Omission,0,68,91,522,691,169,0.0,1.4,BBAA
3.8.10,Windows,93022,10:16:33,1,0,SART,4,go,108,783,25,90,go,8,19ptc,0,0,0,0,0,Omission,0,68,91,523,692,169,0.0,1.4,BBAA
3.8.10,Windows,93022,10:16:33,1,0,SART,4,go,109,784,25,90,go,1,16ptc,0,0,0,0,0,Omission,0,68,91,524,693,169,1.0,1.4,BBAA
3.8.10,Windows,93022,10:16:33,1,0,SART,4,go,110,785,25,90,go,4,10ptc,0,0,0,0,0,Omission,0,68,91,525,694,169,1.0,1.4,BBAA
3.8.10,Windows,93022,10:16:33,1,0,SART,4,nogo,111,786,25,90,nogo,3,16ptc,0,1,0,0,0,NoGo Success,0,69,92,525,694,169,1.0,1.4,BBAA
3.8.10,Windows,93022,10:16:33,1,0,SART,4,go,112,787,25,90,go,2,21ptc,0,0,0,0,0,Omission,0,69,92,526,695,169,1.0,1.4,BBAA
3.8.10,Windows,93022,10:16:33,1,0,SART,4,go,113,788,25,90,go,8,19ptc,0,0,0,0,0,Omission,0,69,92,527,696,169,1.0,1.4,BBAA
3.8.10,Windows,93022,10:16:33,1,0,SART,4,go,114,789,25,90,go,1,10ptc,0,0,0,0,0,Omission,0,69,92,528,697,169,0.0,1.4,BBAA
3.8.10,Windows,93022,10:16:33,1,0,SART,4,go,115,790,25,90,go,1,13ptc,0,0,0,0,0,Omission,0,69,92,529,698,169,0.0,1.4,BBAA
3.8.10,Windows,93022,10:16:33,1,0,SART,4,go,116,791,25,90,go,8,16ptc,0,0,0,0,0,Omission,0,69,92,530,699,169,0.0,1.4,BBAA
3.8.10,Windows,93022,10:16:33,1,0,SART,4,go,117,792,25,90,go,7,19ptc,0,0,0,0,0,Omission,0,69,92,531,700,169,0.0,1.4,BBAA
3.8.10,Windows,93022,10:16:33,1,0,SART,4,go,118,793,25,90,go,9,13ptc,0,0,0,0,0,Omission,0,69,92,532,701,169,0.0,1.4,BBAA
3.8.10,Windows,93022,10:16:33,1,0,SART,4,go,119,794,25,90,go,5,10ptc,0,0,0,0,0,Omission,0,69,92,533,702,169,0.0,1.4,BBAA
3.8.10,Windows,93022,10:16:33,1,0,SART,4,go,120,795,25,90,go,8,21ptc,0,0,0,0,0,Omission,0,69,92,534,703,169,0.0,1.4,BBAA
3.8.10,Windows,93022,10:16:33,1,0,SART,4,go,121,796,25,90,go,9,13ptc,0,0,0,0,0,Omission,0,69,92,535,704,169,0.0,1.4,BBAA
3.8.10,Windows,93022,10:16:33,1,0,SART,4,go,122,797,25,90,go,9,21ptc,0,0,0,0,0,Omission,0,69,92,536,705,169,0.0,1.4,BBAA
3.8.10,Windows,93022,10:16:33,1,0,SART,4,go,123,798,25,90,go,5,10ptc,0,0,0,0,0,Omission,0,69,92,537,706,169,0.0,1.4,BBAA
3.8.10,Windows,93022,10:16:33,1,0,SART,4,go,124,799,25,90,go,4,19ptc,0,0,0,0,0,Omission,0,69,92,538,707,169,0.0,1.4,BBAA
3.8.10,Windows,93022,10:16:33,1,0,SART,4,go,125,800,25,90,go,1,16ptc,0,0,0,0,0,Omission,0,69,92,539,708,169,0.0,1.4,BBAA
3.8.10,Windows,93022,10:16:33,1,0,SART,4,go,126,801,25,90,go,1,16ptc,0,0,0,0,0,Omission,0,69,92,540,709,169,1.0,1.4,BBAA
3.8.10,Windows,93022,10:16:33,1,0,SART,4,go,127,802,25,90,go,4,13ptc,0,0,0,0,0,Omission,0,69,92,541,710,169,1.0,1.4,BBAA
3.8.10,Windows,93022,10:16:33,1,0,SART,4,nogo,128,803,25,90,nogo,3,19ptc,0,1,0,0,0,NoGo Success,0,70,93,541,710,169,1.0,1.4,BBAA
3.8.10,Windows,93022,10:16:33,1,0,SART,4,go,129,804,25,90,go,7,21ptc,0,0,0,0,0,Omission,0,70,93,542,711,169,1.0,1.4,BBAA
3.8.10,Windows,93022,10:16:33,1,0,SART,4,go,130,805,25,90,go,4,10ptc,0,0,0,0,0,Omission,0,70,93,543,712,169,1.0,1.4,BBAA
3.8.10,Windows,93022,10:16:33,1,0,SART,4,go,131,806,25,90,go,6,21ptc,0,0,0,0,0,Omission,0,70,93,544,713,169,0.0,1.4,BBAA
3.8.10,Windows,93022,10:16:33,1,0,SART,4,go,132,807,25,90,go,4,10ptc,0,0,0,0,0,Omission,0,70,93,545,714,169,0.0,1.4,BBAA
3.8.10,Windows,93022,10:16:33,1,0,SART,4,go,133,808,25,90,go,4,16ptc,0,0,0,0,0,Omission,0,70,93,546,715,169,0.0,1.4,BBAA
3.8.10,Windows,93022,10:16:33,1,0,SART,4,go,134,809,25,90,go,9,13ptc,0,0,0,0,0,Omission,0,70,93,547,716,169,0.0,1.4,BBAA
3.8.10,Windows,93022,10:16:33,1,0,SART,4,go,135,810,25,90,go,6,19ptc,0,0,0,0,0,Omission,0,70,93,548,717,169,0.0,1.4,BBAA
3.8.10,Windows,93022,10:16:33,1,0,SART,4,go,136,811,25,90,go,9,10ptc,0,0,0,0,0,Omission,0,70,93,549,718,169,0.0,1.4,BBAA
3.8.10,Windows,93022,10:16:33,1,0,SART,4,go,137,812,25,90,go,6,19ptc,0,0,0,0,0,Omission,0,70,93,550,719,169,0.0,1.4,BBAA
3.8.10,Windows,93022,10:16:33,1,0,SART,4,go,138,813,25,90,go,4,21ptc,0,0,0,0,0,Omission,0,70,93,551,720,169,0.0,1.4,BBAA
