build,computer.platform,date,time,subject,group,blockcode,blocknum,trialcode,trialnum,expressions.trialcount,parameters.digitpresentationtime,parameters.maskpresentationtime,values.trialtype,values.digit,values.fontsize,response,correct,values.RT,latency,values.latencytype,values.responsetype,values.count_anticipatory,values.correctsuppressions,values.count_NoGo,values.incorrectsuppressions,values.count_Go,values.count_validGo,values.dostim,values.amp,values.order
3.8.10,Windows,11122,11:34:48,998,000000,SART,1,go,1,1,25,90,go,1,13ptc,space,1,957,957,3,Go Success,0,0,0,0,1,1,0.0,1,AABB
3.8.10,Windows,11122,11:34:48,998,000000,SART,1,nogo,2,2,25,90,nogo,3,10ptc,0,1,0,0,0,NoGo Success,0,1,1,0,1,1,0.0,1,AABB
3.8.10,Windows,11122,11:34:48,998,000000,SART,1,go,3,3,25,90,go,6,19ptc,space,1,221,221,3,Go Success,0,1,1,0,2,2,1.0,1,AABB
3.8.10,Windows,11122,11:34:48,998,000000,SART,1,go,4,4,25,90,go,1,16ptc,space,1,956,956,3,Go Success,0,1,1,0,3,3,1.0,1,AABB
3.8.10,Windows,11122,11:34:48,998,000000,SART,1,nogo,5,5,25,90,nogo,3,21ptc,0,1,0,0,0,NoGo Success,0,2,2,0,3,3,1.0,1,AABB
3.8.10,Windows,11122,11:34:48,998,000000,SART,1,go,6,6,25,90,go,4,10ptc,space,0,189,189,2,Go Ambiguous,0,2,2,0,4,3,1.0,1,AABB
3.8.10,Windows,11122,11:34:48,998,000000,SART,1,go,7,7,25,90,go,7,13ptc,space,1,955,955,3,Go Success,0,2,2,0,5,4,1.0,1,AABB
3.8.10,Windows,11122,11:34:48,998,000000,SART,1,go,8,8,25,90,go,7,19ptc,space,1,955,955,3,Go Success,0,2,2,0,6,5,0.0,1,AABB
3.8.10,Windows,11122,11:34:48,998,000000,SART,1,go,9,9,25,90,go,8,16ptc,space,1,955,955,3,Go Success,0,2,2,0,7,6,0.0,1,AABB
3.8.10,Windows,11122,11:34:48,998,000000,SART,1,go,10,10,25,90,go,9,21ptc,space,1,957,957,3,Go Success,0,2,2,0,8,7,0.0,1,AABB
3.8.10,Windows,11122,11:34:48,998,000000,SART,1,go,11,11,25,90,go,6,21ptc,space,1,958,958,3,Go Success,0,2,2,0,9,8,0.0,1,AABB
3.8.10,Windows,11122,11:34:48,998,000000,SART,1,go,12,12,25,90,go,7,10ptc,space,1,961,961,3,Go Success,0,2,2,0,10,9,0.0,1,AABB
3.8.10,Windows,11122,11:34:48,998,000000,SART,1,go,13,13,25,90,go,5,13ptc,space,1,957,957,3,Go Success,0,2,2,0,11,10,0.0,1,AABB
3.8.10,Windows,11122,11:34:48,998,000000,SART,1,go,14,14,25,90,go,7,19ptc,space,1,220,220,3,Go Success,0,2,2,0,12,11,0.0,1,AABB
3.8.10,Windows,11122,11:34:48,998,000000,SART,1,go,15,15,25,90,go,9,16ptc,space,1,958,958,3,Go Success,0,2,2,0,13,12,0.0,1,AABB
3.8.10,Windows,11122,11:34:48,998,000000,SART,1,go,16,16,25,90,go,4,21ptc,space,1,243,243,3,Go Success,0,2,2,0,14,13,0.0,1,AABB
3.8.10,Windows,11122,11:34:48,998,000000,SART,1,go,17,17,25,90,go,5,13ptc,space,1,960,960,3,Go Success,0,2,2,0,15,14,0.0,1,AABB
3.8.10,Windows,11122,11:34:48,998,000000,SART,1,go,18,18,25,90,go,5,19ptc,space,1,958,958,3,Go Success,0,2,2,0,16,15,0.0,1,AABB
3.8.10,Windows,11122,11:34:48,998,000000,SART,1,go,19,19,25,90,go,4,10ptc,space,1,960,960,3,Go Success,0,2,2,0,17,16,0.0,1,AABB
3.8.10,Windows,11122,11:34:48,998,000000,SART,1,go,20,20,25,90,go,9,16ptc,space,1,249,249,3,Go Success,0,2,2,0,18,17,1.0,1,AABB
3.8.10,Windows,11122,11:34:48,998,000000,SART,1,go,21,21,25,90,go,5,13ptc,space,1,956,956,3,Go Success,0,2,2,0,19,18,1.0,1,AABB
3.8.10,Windows,11122,11:34:48,998,000000,SART,1,nogo,22,22,25,90,nogo,3,16ptc,space,0,206,206,3,NoGo Failure,0,2,3,0,19,18,1.0,1,AABB
3.8.10,Windows,11122,11:34:48,998,000000,SART,1,go,23,23,25,90,go,6,19ptc,space,1,956,956,3,Go Success,0,2,3,0,20,19,1.0,1,AABB
3.8.10,Windows,11122,11:34:48,998,000000,SART,1,go,24,24,25,90,go,2,10ptc,space,1,955,955,3,Go Success,0,2,3,0,21,20,1.0,1,AABB
3.8.10,Windows,11122,11:34:48,998,000000,SART,1,go,25,25,25,90,go,2,21ptc,space,1,221,221,3,Go Success,0,2,3,0,22,21,0.0,1,AABB
3.8.10,Windows,11122,11:34:48,998,000000,SART,1,go,26,26,25,90,go,5,19ptc,space,1,957,957,3,Go Success,0,2,3,0,23,22,0.0,1,AABB
3.8.10,Windows,11122,11:34:48,998,000000,SART,1,go,27,27,25,90,go,8,16ptc,space,1,955,955,3,Go Success,0,2,3,0,24,23,0.0,1,AABB
3.8.10,Windows,11122,11:34:48,998,000000,SART,1,go,28,28,25,90,go,4,10ptc,space,1,960,960,3,Go Success,0,2,3,0,25,24,0.0,1,AABB
3.8.10,Windows,11122,11:34:48,998,000000,SART,1,go,29,29,25,90,go,4,21ptc,space,1,249,249,3,Go Success,0,2,3,0,26,25,0.0,1,AABB
3.8.10,Windows,11122,11:34:48,998,000000,SART,1,go,30,30,25,90,go,4,13ptc,space,1,962,962,3,Go Success,0,2,3,0,27,26,0.0,1,AABB
3.8.10,Windows,11122,11:34:48,998,000000,SART,1,go,31,31,25,90,go,8,21ptc,space,1,959,959,3,Go Success,0,2,3,0,28,27,0.0,1,AABB
3.8.10,Windows,11122,11:34:48,998,000000,SART,1,go,32,32,25,90,go,6,16ptc,space,1,956,956,3,Go Success,0,2,3,0,29,28,0.0,1,AABB
3.8.10,Windows,11122,11:34:48,998,000000,SART,1,go,33,33,25,90,go,9,10ptc,space,1,959,959,3,Go Success,0,2,3,0,30,29,0.0,1,AABB
3.8.10,Windows,11122,11:34:48,998,000000,SART,1,go,34,34,25,90,go,1,19ptc,space,1,242,242,3,Go Success,0,2,3,0,31,30,0.0,1,AABB
3.8.10,Windows,11122,11:34:48,998,000000,SART,1,go,35,35,25,90,go,5,13ptc,space,1,235,235,3,Go Success,0,2,3,0,32,31,0.0,1,AABB
3.8.10,Windows,11122,11:34:48,998,000000,SART,1,go,36,36,25,90,go,2,21ptc,space,1,247,247,3,Go Success,0,2,3,0,33,32,0.0,1,AABB
3.8.10,Windows,11122,11:34:48,998,000000,SART,1,go,37,37,25,90,go,8,13ptc,space,1,960,960,3,Go Success,0,2,3,0,34,33,0.0,1,AABB
3.8.10,Windows,11122,11:34:48,998,000000,SART,1,go,38,38,25,90,go,5,10ptc,space,1,958,958,3,Go Success,0,2,3,0,35,34,0.0,1,AABB
3.8.10,Windows,11122,11:34:48,998,000000,SART,1,go,39,39,25,90,go,2,19ptc,space,1,958,958,3,Go Success,0,2,3,0,36,35,0.0,1,AABB
3.8.10,Windows,11122,11:34:48,998,000000,SART,1,go,40,40,25,90,go,4,16ptc,space,1,960,960,3,Go Success,0,2,3,0,37,36,0.0,1,AABB
3.8.10,Windows,11122,11:34:48,998,000000,SART,1,go,41,41,25,90,go,5,21ptc,space,1,236,236,3,Go Success,0,2,3,0,38,37,0.0,1,AABB
3.8.10,Windows,11122,11:34:48,998,000000,SART,1,go,42,42,25,90,go,1,16ptc,space,1,248,248,3,Go Success,0,2,3,0,39,38,0.0,1,AABB
3.8.10,Windows,11122,11:34:48,998,000000,SART,1,go,43,43,25,90,go,7,13ptc,space,1,232,232,3,Go Success,0,2,3,0,40,39,1.0,1,AABB
3.8.10,Windows,11122,11:34:48,998,000000,SART,1,go,44,44,25,90,go,1,10ptc,space,1,219,219,3,Go Success,0,2,3,0,41,40,1.0,1,AABB
3.8.10,Windows,11122,11:34:48,998,000000,SART,1,nogo,45,45,25,90,nogo,3,19ptc,space,0,219,219,3,NoGo Failure,0,2,4,0,41,40,1.0,1,AABB
3.8.10,Windows,11122,11:34:48,998,000000,SART,1,go,46,46,25,90,go,5,10ptc,space,1,236,236,3,Go Success,0,2,4,0,42,41,1.0,1,AABB
3.8.10,Windows,11122,11:34:48,998,000000,SART,1,go,47,47,25,90,go,6,16ptc,space,1,200,200,3,Go Success,0,2,4,0,43,42,1.0,1,AABB
3.8.10,Windows,11122,11:34:48,998,000000,SART,1,go,48,48,25,90,go,4,21ptc,space,1,232,232,3,Go Success,0,2,4,0,44,43,0.0,1,AABB
3.8.10,Windows,11122,11:34:48,998,000000,SART,1,go,49,49,25,90,go,1,19ptc,space,1,209,209,3,Go Success,0,2,4,0,45,44,0.0,1,AABB
3.8.10,Windows,11122,11:34:48,998,000000,SART,1,go,50,50,25,90,go,2,13ptc,space,1,959,959,3,Go Success,0,2,4,0,46,45,1.0,1,AABB
3.8.10,Windows,11122,11:34:48,998,000000,SART,1,go,51,51,25,90,go,1,10ptc,space,1,957,957,3,Go Success,0,2,4,0,47,46,1.0,1,AABB
3.8.10,Windows,11122,11:34:48,998,000000,SART,1,nogo,52,52,25,90,nogo,3,13ptc,0,1,0,0,0,NoGo Success,0,3,5,0,47,46,1.0,1,AABB
3.8.10,Windows,11122,11:34:48,998,000000,SART,1,go,53,53,25,90,go,7,21ptc,space,1,217,217,3,Go Success,0,3,5,0,48,47,1.0,1,AABB
3.8.10,Windows,11122,11:34:48,998,000000,SART,1,go,54,54,25,90,go,6,19ptc,space,0,198,198,2,Go Ambiguous,0,3,5,0,49,47,1.0,1,AABB
3.8.10,Windows,11122,11:34:48,998,000000,SART,1,nogo,55,55,25,90,nogo,3,16ptc,space,0,956,956,3,NoGo Failure,0,3,6,0,49,47,1.0,1,AABB
3.8.10,Windows,11122,11:34:48,998,000000,SART,1,go,56,56,25,90,go,7,21ptc,space,1,957,957,3,Go Success,0,3,6,0,50,48,1.0,1,AABB
3.8.10,Windows,11122,11:34:48,998,000000,SART,1,go,57,57,25,90,go,2,10ptc,space,1,227,227,3,Go Success,0,3,6,0,51,49,1.0,1,AABB
3.8.10,Windows,11122,11:34:48,998,000000,SART,1,go,58,58,25,90,go,9,16ptc,space,1,955,955,3,Go Success,0,3,6,0,52,50,0.0,1,AABB
3.8.10,Windows,11122,11:34:48,998,000000,SART,1,go,59,59,25,90,go,8,19ptc,space,1,956,956,3,Go Success,0,3,6,0,53,51,0.0,1,AABB
3.8.10,Windows,11122,11:34:48,998,000000,SART,1,go,60,60,25,90,go,9,13ptc,space,1,956,956,3,Go Success,0,3,6,0,54,52,0.0,1,AABB
3.8.10,Windows,11122,11:34:48,998,000000,SART,1,go,61,61,25,90,go,9,10ptc,space,1,220,220,3,Go Success,0,3,6,0,55,53,1.0,1,AABB
3.8.10,Windows,11122,11:34:48,998,000000,SART,1,go,62,62,25,90,go,2,21ptc,space,1,955,955,3,Go Success,0,3,6,0,56,54,1.0,1,AABB
3.8.10,Windows,11122,11:34:48,998,000000,SART,1,nogo,63,63,25,90,nogo,3,16ptc,space,0,955,955,3,NoGo Failure,0,3,7,0,56,54,1.0,1,AABB
3.8.10,Windows,11122,11:34:48,998,000000,SART,1,go,64,64,25,90,go,4,19ptc,space,1,955,955,3,Go Success,0,3,7,0,57,55,1.0,1,AABB
3.8.10,Windows,11122,11:34:48,998,000000,SART,1,go,65,65,25,90,go,1,13ptc,space,1,956,956,3,Go Success,0,3,7,0,58,56,1.0,1,AABB
3.8.10,Windows,11122,11:34:48,998,000000,SART,1,go,66,66,25,90,go,6,19ptc,space,1,956,956,3,Go Success,0,3,7,0,59,57,0.0,1,AABB
3.8.10,Windows,11122,11:34:48,998,000000,SART,1,go,67,67,25,90,go,1,16ptc,space,1,955,955,3,Go Success,0,3,7,0,60,58,0.0,1,AABB
3.8.10,Windows,11122,11:34:48,998,000000,SART,1,go,68,68,25,90,go,4,13ptc,space,1,960,960,3,Go Success,0,3,7,0,61,59,0.0,1,AABB
3.8.10,Windows,11122,11:34:48,998,000000,SART,1,go,69,69,25,90,go,2,10ptc,space,1,961,961,3,Go Success,0,3,7,0,62,60,0.0,1,AABB
3.8.10,Windows,11122,11:34:48,998,000000,SART,1,go,70,70,25,90,go,9,21ptc,space,1,956,956,3,Go Success,0,3,7,0,63,61,0.0,1,AABB
3.8.10,Windows,11122,11:34:48,998,000000,SART,1,go,71,71,25,90,go,2,10ptc,space,1,959,959,3,Go Success,0,3,7,0,64,62,0.0,1,AABB
3.8.10,Windows,11122,11:34:48,998,000000,SART,1,go,72,72,25,90,go,7,16ptc,space,1,959,959,3,Go Success,0,3,7,0,65,63,1.0,1,AABB
3.8.10,Windows,11122,11:34:48,998,000000,SART,1,go,73,73,25,90,go,6,13ptc,space,1,955,955,3,Go Success,0,3,7,0,66,64,1.0,1,AABB
3.8.10,Windows,11122,11:34:48,998,000000,SART,1,nogo,74,74,25,90,nogo,3,21ptc,0,1,0,0,0,NoGo Success,0,4,8,0,66,64,1.0,1,AABB
3.8.10,Windows,11122,11:34:48,998,000000,SART,1,go,75,75,25,90,go,7,19ptc,space,1,201,201,3,Go Success,0,4,8,0,67,65,1.0,1,AABB
3.8.10,Windows,11122,11:34:48,998,000000,SART,1,go,76,76,25,90,go,6,16ptc,space,1,962,962,3,Go Success,0,4,8,0,68,66,1.0,1,AABB
3.8.10,Windows,11122,11:34:48,998,000000,SART,1,nogo,77,77,25,90,nogo,3,19ptc,0,1,0,0,0,NoGo Success,0,5,9,0,68,66,1.0,1,AABB
3.8.10,Windows,11122,11:34:48,998,000000,SART,1,go,78,78,25,90,go,9,21ptc,space,1,203,203,3,Go Success,0,5,9,0,69,67,1.0,1,AABB
3.8.10,Windows,11122,11:34:48,998,000000,SART,1,go,79,79,25,90,go,8,10ptc,space,1,957,957,3,Go Success,0,5,9,0,70,68,1.0,1,AABB
3.8.10,Windows,11122,11:34:48,998,000000,SART,1,go,80,80,25,90,go,8,13ptc,space,1,956,956,3,Go Success,0,5,9,0,71,69,0.0,1,AABB
3.8.10,Windows,11122,11:34:48,998,000000,SART,1,go,81,81,25,90,go,8,10ptc,space,1,955,955,3,Go Success,0,5,9,0,72,70,0.0,1,AABB
3.8.10,Windows,11122,11:34:48,998,000000,SART,1,go,82,82,25,90,go,4,13ptc,space,1,956,956,3,Go Success,0,5,9,0,73,71,0.0,1,AABB
3.8.10,Windows,11122,11:34:48,998,000000,SART,1,go,83,83,25,90,go,5,19ptc,space,1,958,958,3,Go Success,0,5,9,0,74,72,0.0,1,AABB
3.8.10,Windows,11122,11:34:48,998,000000,SART,1,go,84,84,25,90,go,1,21ptc,space,1,959,959,3,Go Success,0,5,9,0,75,73,0.0,1,AABB
3.8.10,Windows,11122,11:34:48,998,000000,SART,1,go,85,85,25,90,go,6,16ptc,space,1,957,957,3,Go Success,0,5,9,0,76,74,0.0,1,AABB
3.8.10,Windows,11122,11:34:48,998,000000,SART,1,go,86,86,25,90,go,9,16ptc,space,1,963,963,3,Go Success,0,5,9,0,77,75,0.0,1,AABB
3.8.10,Windows,11122,11:34:48,998,000000,SART,1,go,87,87,25,90,go,1,19ptc,space,1,956,956,3,Go Success,0,5,9,0,78,76,0.0,1,AABB
3.8.10,Windows,11122,11:34:48,998,000000,SART,1,go,88,88,25,90,go,2,10ptc,space,1,960,960,3,Go Success,0,5,9,0,79,77,0.0,1,AABB
3.8.10,Windows,11122,11:34:48,998,000000,SART,1,go,89,89,25,90,go,1,13ptc,space,1,958,958,3,Go Success,0,5,9,0,80,78,0.0,1,AABB
3.8.10,Windows,11122,11:34:48,998,000000,SART,1,go,90,90,25,90,go,8,21ptc,space,1,958,958,3,Go Success,0,5,9,0,81,79,1.0,1,AABB
3.8.10,Windows,11122,11:34:48,998,000000,SART,1,go,91,91,25,90,go,7,19ptc,space,1,956,956,3,Go Success,0,5,9,0,82,80,1.0,1,AABB
3.8.10,Windows,11122,11:34:48,998,000000,SART,1,nogo,92,92,25,90,nogo,3,10ptc,space,0,956,956,3,NoGo Failure,0,5,10,0,82,80,1.0,1,AABB
3.8.10,Windows,11122,11:34:48,998,000000,SART,1,go,93,93,25,90,go,1,21ptc,space,1,956,956,3,Go Success,0,5,10,0,83,81,1.0,1,AABB
3.8.10,Windows,11122,11:34:48,998,000000,SART,1,go,94,94,25,90,go,7,16ptc,space,1,217,217,3,Go Success,0,5,10,0,84,82,1.0,1,AABB
3.8.10,Windows,11122,11:34:48,998,000000,SART,1,go,95,95,25,90,go,8,13ptc,space,1,956,956,3,Go Success,0,5,10,0,85,83,1.0,1,AABB
3.8.10,Windows,11122,11:34:48,998,000000,SART,1,nogo,96,96,25,90,nogo,3,16ptc,space,0,955,955,3,NoGo Failure,0,5,11,0,85,83,1.0,1,AABB
3.8.10,Windows,11122,11:34:48,998,000000,SART,1,go,97,97,25,90,go,7,21ptc,space,1,955,955,3,Go Success,0,5,11,0,86,84,1.0,1,AABB
3.8.10,Windows,11122,11:34:48,998,000000,SART,1,go,98,98,25,90,go,7,10ptc,space,1,956,956,3,Go Success,0,5,11,0,87,85,1.0,1,AABB
3.8.10,Windows,11122,11:34:48,998,000000,SART,1,go,99,99,25,90,go,5,13ptc,space,1,955,955,3,Go Success,0,5,11,0,88,86,0.0,1,AABB
3.8.10,Windows,11122,11:34:48,998,000000,SART,1,go,100,100,25,90,go,2,19ptc,space,1,963,963,3,Go Success,0,5,11,0,89,87,0.0,1,AABB
3.8.10,Windows,11122,11:34:48,998,000000,SART,1,go,101,101,25,90,go,7,19ptc,space,1,961,961,3,Go Success,0,5,11,0,90,88,0.0,1,AABB
3.8.10,Windows,11122,11:34:48,998,000000,SART,1,go,102,102,25,90,go,6,13ptc,space,1,959,959,3,Go Success,0,5,11,0,91,89,0.0,1,AABB
3.8.10,Windows,11122,11:34:48,998,000000,SART,1,go,103,103,25,90,go,5,10ptc,space,1,960,960,3,Go Success,0,5,11,0,92,90,0.0,1,AABB
3.8.10,Windows,11122,11:34:48,998,000000,SART,1,go,104,104,25,90,go,9,16ptc,space,1,957,957,3,Go Success,0,5,11,0,93,91,0.0,1,AABB
3.8.10,Windows,11122,11:34:48,998,000000,SART,1,go,105,105,25,90,go,9,21ptc,space,1,955,955,3,Go Success,0,5,11,0,94,92,0.0,1,AABB
3.8.10,Windows,11122,11:34:48,998,000000,SART,1,go,106,106,25,90,go,2,19ptc,space,1,958,958,3,Go Success,0,5,11,0,95,93,0.0,1,AABB
3.8.10,Windows,11122,11:34:48,998,000000,SART,1,go,107,107,25,90,go,8,16ptc,space,1,958,958,3,Go Success,0,5,11,0,96,94,0.0,1,AABB
3.8.10,Windows,11122,11:34:48,998,000000,SART,1,go,108,108,25,90,go,6,10ptc,space,1,960,960,3,Go Success,0,5,11,0,97,95,1.0,1,AABB
3.8.10,Windows,11122,11:34:48,998,000000,SART,1,go,109,109,25,90,go,2,13ptc,space,1,956,956,3,Go Success,0,5,11,0,98,96,1.0,1,AABB
3.8.10,Windows,11122,11:34:48,998,000000,SART,1,nogo,110,110,25,90,nogo,3,21ptc,0,1,0,0,0,NoGo Success,0,6,12,0,98,96,1.0,1,AABB
3.8.10,Windows,11122,11:34:48,998,000000,SART,1,go,111,111,25,90,go,4,19ptc,space,1,234,234,3,Go Success,0,6,12,0,99,97,1.0,1,AABB
3.8.10,Windows,11122,11:34:48,998,000000,SART,1,go,112,112,25,90,go,4,16ptc,space,1,956,956,3,Go Success,0,6,12,0,100,98,1.0,1,AABB
3.8.10,Windows,11122,11:34:48,998,000000,SART,1,go,113,113,25,90,go,6,13ptc,space,1,956,956,3,Go Success,0,6,12,0,101,99,1.0,1,AABB
3.8.10,Windows,11122,11:34:48,998,000000,SART,1,nogo,114,114,25,90,nogo,3,21ptc,0,1,0,0,0,NoGo Success,0,7,13,0,101,99,1.0,1,AABB
3.8.10,Windows,11122,11:34:48,998,000000,SART,1,go,115,115,25,90,go,1,10ptc,space,1,205,205,3,Go Success,0,7,13,0,102,100,1.0,1,AABB
3.8.10,Windows,11122,11:34:48,998,000000,SART,1,nogo,116,116,25,90,nogo,3,21ptc,space,0,248,248,3,NoGo Failure,0,7,14,0,102,100,1.0,1,AABB
3.8.10,Windows,11122,11:34:48,998,000000,SART,1,go,117,117,25,90,go,6,16ptc,space,1,955,955,3,Go Success,0,7,14,0,103,101,1.0,1,AABB
3.8.10,Windows,11122,11:34:48,998,000000,SART,1,go,118,118,25,90,go,5,19ptc,space,1,955,955,3,Go Success,0,7,14,0,104,102,1.0,1,AABB
3.8.10,Windows,11122,11:34:48,998,000000,SART,1,go,119,119,25,90,go,8,10ptc,space,1,956,956,3,Go Success,0,7,14,0,105,103,0.0,1,AABB
3.8.10,Windows,11122,11:34:48,998,000000,SART,1,go,120,120,25,90,go,8,13ptc,space,1,955,955,3,Go Success,0,7,14,0,106,104,0.0,1,AABB
3.8.10,Windows,11122,11:34:48,998,000000,SART,1,go,121,121,25,90,go,8,21ptc,space,1,956,956,3,Go Success,0,7,14,0,107,105,1.0,1,AABB
3.8.10,Windows,11122,11:34:48,998,000000,SART,1,go,122,122,25,90,go,1,16ptc,space,1,956,956,3,Go Success,0,7,14,0,108,106,1.0,1,AABB
3.8.10,Windows,11122,11:34:48,998,000000,SART,1,nogo,123,123,25,90,nogo,3,10ptc,0,1,0,0,0,NoGo Success,0,8,15,0,108,106,1.0,1,AABB
3.8.10,Windows,11122,11:34:48,998,000000,SART,1,go,124,124,25,90,go,9,19ptc,space,1,214,214,3,Go Success,0,8,15,0,109,107,1.0,1,AABB
3.8.10,Windows,11122,11:34:48,998,000000,SART,1,go,125,125,25,90,go,6,13ptc,space,1,955,955,3,Go Success,0,8,15,0,110,108,1.0,1,AABB
3.8.10,Windows,11122,11:34:48,998,000000,SART,1,go,126,126,25,90,go,2,16ptc,space,1,955,955,3,Go Success,0,8,15,0,111,109,0.0,1,AABB
3.8.10,Windows,11122,11:34:48,998,000000,SART,1,go,127,127,25,90,go,5,13ptc,space,1,956,956,3,Go Success,0,8,15,0,112,110,1.0,1,AABB
3.8.10,Windows,11122,11:34:48,998,000000,SART,1,go,128,128,25,90,go,8,21ptc,space,1,956,956,3,Go Success,0,8,15,0,113,111,1.0,1,AABB
3.8.10,Windows,11122,11:34:48,998,000000,SART,1,nogo,129,129,25,90,nogo,3,10ptc,0,1,0,0,0,NoGo Success,0,9,16,0,113,111,1.0,1,AABB
3.8.10,Windows,11122,11:34:48,998,000000,SART,1,go,130,130,25,90,go,4,19ptc,space,1,956,956,3,Go Success,0,9,16,0,114,112,1.0,1,AABB
3.8.10,Windows,11122,11:34:48,998,000000,SART,1,go,131,131,25,90,go,2,13ptc,space,1,956,956,3,Go Success,0,9,16,0,115,113,1.0,1,AABB
3.8.10,Windows,11122,11:34:48,998,000000,SART,1,go,132,132,25,90,go,4,10ptc,space,1,955,955,3,Go Success,0,9,16,0,116,114,0.0,1,AABB
3.8.10,Windows,11122,11:34:48,998,000000,SART,1,go,133,133,25,90,go,9,21ptc,space,1,960,960,3,Go Success,0,9,16,0,117,115,1.0,1,AABB
3.8.10,Windows,11122,11:34:48,998,000000,SART,1,go,134,134,25,90,go,4,19ptc,space,1,956,956,3,Go Success,0,9,16,0,118,116,1.0,1,AABB
3.8.10,Windows,11122,11:34:48,998,000000,SART,1,nogo,135,135,25,90,nogo,3,16ptc,0,1,0,0,0,NoGo Success,0,10,17,0,118,116,1.0,1,AABB
3.8.10,Windows,11122,11:34:48,998,000000,SART,1,nogo,136,136,25,90,nogo,3,21ptc,space,0,200,200,3,NoGo Failure,0,10,18,0,118,116,1.0,1,AABB
3.8.10,Windows,11122,11:34:48,998,000000,SART,1,go,137,137,25,90,go,7,13ptc,space,1,957,957,3,Go Success,0,10,18,0,119,117,1.0,1,AABB
3.8.10,Windows,11122,11:34:48,998,000000,SART,1,go,138,138,25,90,go,8,16ptc,space,1,955,955,3,Go Success,0,10,18,0,120,118,1.0,1,AABB
3.8.10,Windows,11122,11:34:48,998,000000,SART,1,go,139,139,25,90,go,9,19ptc,space,1,954,954,3,Go Success,0,10,18,0,121,119,0.0,1,AABB
3.8.10,Windows,11122,11:34:48,998,000000,SART,1,go,140,140,25,90,go,9,10ptc,space,1,956,956,3,Go Success,0,10,18,0,122,120,0.0,1,AABB
3.8.10,Windows,11122,11:34:48,998,000000,SART,1,go,141,141,25,90,go,8,21ptc,space,1,957,957,3,Go Success,0,10,18,0,123,121,1.0,1,AABB
3.8.10,Windows,11122,11:34:48,998,000000,SART,1,go,142,142,25,90,go,8,10ptc,space,1,956,956,3,Go Success,0,10,18,0,124,122,1.0,1,AABB
3.8.10,Windows,11122,11:34:48,998,000000,SART,1,nogo,143,143,25,90,nogo,3,16ptc,space,0,956,956,3,NoGo Failure,0,10,19,0,124,122,1.0,1,AABB
3.8.10,Windows,11122,11:34:48,998,000000,SART,1,go,144,144,25,90,go,4,19ptc,space,1,955,955,3,Go Success,0,10,19,0,125,123,1.0,1,AABB
3.8.10,Windows,11122,11:34:48,998,000000,SART,1,go,145,145,25,90,go,2,13ptc,space,1,957,957,3,Go Success,0,10,19,0,126,124,1.0,1,AABB
3.8.10,Windows,11122,11:34:48,998,000000,SART,1,go,146,146,25,90,go,5,19ptc,space,1,956,956,3,Go Success,0,10,19,0,127,125,0.0,1,AABB
3.8.10,Windows,11122,11:34:48,998,000000,SART,1,go,147,147,25,90,go,8,13ptc,space,1,955,955,3,Go Success,0,10,19,0,128,126,0.0,1,AABB
3.8.10,Windows,11122,11:34:48,998,000000,SART,1,go,148,148,25,90,go,5,21ptc,space,1,955,955,3,Go Success,0,10,19,0,129,127,1.0,1,AABB
3.8.10,Windows,11122,11:34:48,998,000000,SART,1,go,149,149,25,90,go,2,16ptc,space,1,956,956,3,Go Success,0,10,19,0,130,128,1.0,1,AABB
3.8.10,Windows,11122,11:34:48,998,000000,SART,1,nogo,150,150,25,90,nogo,3,10ptc,0,1,0,0,0,NoGo Success,0,11,20,0,130,128,1.0,1,AABB
3.8.10,Windows,11122,11:34:48,998,000000,SART,1,go,151,151,25,90,go,2,19ptc,space,1,955,955,3,Go Success,0,11,20,0,131,129,1.0,1,AABB
3.8.10,Windows,11122,11:34:48,998,000000,SART,1,go,152,152,25,90,go,1,13ptc,space,1,955,955,3,Go Success,0,11,20,0,132,130,1.0,1,AABB
3.8.10,Windows,11122,11:34:48,998,000000,SART,1,go,153,153,25,90,go,6,21ptc,space,1,955,955,3,Go Success,0,11,20,0,133,131,0.0,1,AABB
3.8.10,Windows,11122,11:34:48,998,000000,SART,1,go,154,154,25,90,go,1,16ptc,space,1,956,956,3,Go Success,0,11,20,0,134,132,0.0,1,AABB
3.8.10,Windows,11122,11:34:48,998,000000,SART,1,go,155,155,25,90,go,4,10ptc,space,1,957,957,3,Go Success,0,11,20,0,135,133,0.0,1,AABB
3.8.10,Windows,11122,11:34:48,998,000000,SART,1,go,156,156,25,90,go,2,13ptc,space,1,955,955,3,Go Success,0,11,20,0,136,134,0.0,1,AABB
3.8.10,Windows,11122,11:34:48,998,000000,SART,1,go,157,157,25,90,go,1,10ptc,space,1,955,955,3,Go Success,0,11,20,0,137,135,0.0,1,AABB
3.8.10,Windows,11122,11:34:48,998,000000,SART,1,go,158,158,25,90,go,1,19ptc,space,1,959,959,3,Go Success,0,11,20,0,138,136,0.0,1,AABB
3.8.10,Windows,11122,11:34:48,998,000000,SART,1,go,159,159,25,90,go,9,16ptc,space,1,959,959,3,Go Success,0,11,20,0,139,137,0.0,1,AABB
3.8.10,Windows,11122,11:34:48,998,000000,SART,1,go,160,160,25,90,go,5,21ptc,space,1,956,956,3,Go Success,0,11,20,0,140,138,0.0,1,AABB
3.8.10,Windows,11122,11:34:48,998,000000,SART,1,go,161,161,25,90,go,7,21ptc,space,1,955,955,3,Go Success,0,11,20,0,141,139,0.0,1,AABB
3.8.10,Windows,11122,11:34:48,998,000000,SART,1,go,162,162,25,90,go,9,16ptc,space,1,962,962,3,Go Success,0,11,20,0,142,140,0.0,1,AABB
3.8.10,Windows,11122,11:34:48,998,000000,SART,1,go,163,163,25,90,go,4,10ptc,space,1,961,961,3,Go Success,0,11,20,0,143,141,0.0,1,AABB
3.8.10,Windows,11122,11:34:48,998,000000,SART,1,go,164,164,25,90,go,5,19ptc,space,1,958,958,3,Go Success,0,11,20,0,144,142,0.0,1,AABB
3.8.10,Windows,11122,11:34:48,998,000000,SART,1,go,165,165,25,90,go,7,13ptc,space,1,959,959,3,Go Success,0,11,20,0,145,143,0.0,1,AABB
3.8.10,Windows,11122,11:34:48,998,000000,SART,1,go,166,166,25,90,go,7,10ptc,space,1,960,960,3,Go Success,0,11,20,0,146,144,0.0,1,AABB
3.8.10,Windows,11122,11:34:48,998,000000,SART,1,go,167,167,25,90,go,6,21ptc,space,1,955,955,3,Go Success,0,11,20,0,147,145,0.0,1,AABB
3.8.10,Windows,11122,11:34:48,998,000000,SART,1,go,168,168,25,90,go,5,19ptc,space,1,957,957,3,Go Success,0,11,20,0,148,146,0.0,1,AABB
3.8.10,Windows,11122,11:34:48,998,000000,SART,1,go,169,169,25,90,go,7,13ptc,space,1,958,958,3,Go Success,0,11,20,0,149,147,1.0,1,AABB
3.8.10,Windows,11122,11:34:48,998,000000,SART,1,go,170,170,25,90,go,8,16ptc,space,1,955,955,3,Go Success,0,11,20,0,150,148,1.0,1,AABB
3.8.10,Windows,11122,11:34:48,998,000000,SART,1,nogo,171,171,25,90,nogo,3,21ptc,space,0,955,955,3,NoGo Failure,0,11,21,0,150,148,1.0,1,AABB
3.8.10,Windows,11122,11:34:48,998,000000,SART,1,go,172,172,25,90,go,6,16ptc,space,1,241,241,3,Go Success,0,11,21,0,151,149,1.0,1,AABB
3.8.10,Windows,11122,11:34:48,998,000000,SART,1,go,173,173,25,90,go,5,10ptc,space,1,955,955,3,Go Success,0,11,21,0,152,150,1.0,1,AABB
3.8.10,Windows,11122,11:34:48,998,000000,SART,1,go,174,174,25,90,go,9,19ptc,space,1,239,239,3,Go Success,0,11,21,0,153,151,0.0,1,AABB
3.8.10,Windows,11122,11:34:48,998,000000,SART,1,go,175,175,25,90,go,5,13ptc,space,1,955,955,3,Go Success,0,11,21,0,154,152,0.0,1,AABB
3.8.10,Windows,11122,11:34:48,998,000000,SART,1,go,176,176,25,90,go,7,16ptc,space,1,241,241,3,Go Success,0,11,21,0,155,153,0.0,1,AABB
3.8.10,Windows,11122,11:34:48,998,000000,SART,1,go,177,177,25,90,go,9,10ptc,space,1,235,235,3,Go Success,0,11,21,0,156,154,0.0,1,AABB
3.8.10,Windows,11122,11:34:48,998,000000,SART,1,go,178,178,25,90,go,1,21ptc,space,1,958,958,3,Go Success,0,11,21,0,157,155,0.0,1,AABB
3.8.10,Windows,11122,11:34:48,998,000000,SART,1,go,179,179,25,90,go,8,13ptc,space,1,960,960,3,Go Success,0,11,21,0,158,156,0.0,1,AABB
3.8.10,Windows,11122,11:34:48,998,000000,SART,1,go,180,180,25,90,go,6,19ptc,space,1,960,960,3,Go Success,0,11,21,0,159,157,0.0,1,AABB
3.8.10,Windows,11122,11:34:48,998,000000,SART,1,go,181,181,25,90,go,7,10ptc,space,1,957,957,3,Go Success,0,11,21,0,160,158,1.0,1,AABB
3.8.10,Windows,11122,11:34:48,998,000000,SART,1,go,182,182,25,90,go,5,19ptc,space,1,956,956,3,Go Success,0,11,21,0,161,159,1.0,1,AABB
3.8.10,Windows,11122,11:34:48,998,000000,SART,1,nogo,183,183,25,90,nogo,3,16ptc,0,1,0,0,0,NoGo Success,0,12,22,0,161,159,1.0,1,AABB
3.8.10,Windows,11122,11:34:48,998,000000,SART,1,go,184,184,25,90,go,6,13ptc,space,1,217,217,3,Go Success,0,12,22,0,162,160,1.0,1,AABB
3.8.10,Windows,11122,11:34:48,998,000000,SART,1,go,185,185,25,90,go,9,21ptc,space,1,248,248,3,Go Success,0,12,22,0,163,161,1.0,1,AABB
3.8.10,Windows,11122,11:34:48,998,000000,SART,1,go,186,186,25,90,go,4,13ptc,space,1,955,955,3,Go Success,0,12,22,0,164,162,0.0,1,AABB
3.8.10,Windows,11122,11:34:48,998,000000,SART,1,go,187,187,25,90,go,1,16ptc,space,1,955,955,3,Go Success,0,12,22,0,165,163,1.0,1,AABB
3.8.10,Windows,11122,11:34:48,998,000000,SART,1,go,188,188,25,90,go,9,10ptc,space,1,956,956,3,Go Success,0,12,22,0,166,164,1.0,1,AABB
3.8.10,Windows,11122,11:34:48,998,000000,SART,1,nogo,189,189,25,90,nogo,3,21ptc,0,1,0,0,0,NoGo Success,0,13,23,0,166,164,1.0,1,AABB
3.8.10,Windows,11122,11:34:48,998,000000,SART,1,go,190,190,25,90,go,8,19ptc,space,1,955,955,3,Go Success,0,13,23,0,167,165,1.0,1,AABB
3.8.10,Windows,11122,11:34:48,998,000000,SART,1,go,191,191,25,90,go,2,21ptc,space,1,957,957,3,Go Success,0,13,23,0,168,166,1.0,1,AABB
3.8.10,Windows,11122,11:34:48,998,000000,SART,1,go,192,192,25,90,go,2,10ptc,space,1,236,236,3,Go Success,0,13,23,0,169,167,0.0,1,AABB
3.8.10,Windows,11122,11:34:48,998,000000,SART,1,go,193,193,25,90,go,6,13ptc,space,1,244,244,3,Go Success,0,13,23,0,170,168,0.0,1,AABB
3.8.10,Windows,11122,11:34:48,998,000000,SART,1,go,194,194,25,90,go,2,19ptc,space,1,956,956,3,Go Success,0,13,23,0,171,169,0.0,1,AABB
3.8.10,Windows,11122,11:34:48,998,000000,SART,1,go,195,195,25,90,go,7,16ptc,space,1,955,955,3,Go Success,0,13,23,0,172,170,0.0,1,AABB
3.8.10,Windows,11122,11:34:48,998,000000,SART,1,go,196,196,25,90,go,2,19ptc,space,1,958,958,3,Go Success,0,13,23,0,173,171,0.0,1,AABB
3.8.10,Windows,11122,11:34:48,998,000000,SART,1,go,197,197,25,90,go,7,13ptc,space,1,959,959,3,Go Success,0,13,23,0,174,172,0.0,1,AABB
3.8.10,Windows,11122,11:34:48,998,000000,SART,1,go,198,198,25,90,go,7,10ptc,space,1,959,959,3,Go Success,0,13,23,0,175,173,0.0,1,AABB
3.8.10,Windows,11122,11:34:48,998,000000,SART,1,go,199,199,25,90,go,5,21ptc,space,1,957,957,3,Go Success,0,13,23,0,176,174,0.0,1,AABB
3.8.10,Windows,11122,11:34:48,998,000000,SART,1,go,200,200,25,90,go,9,16ptc,space,1,958,958,3,Go Success,0,13,23,0,177,175,0.0,1,AABB
3.8.10,Windows,11122,11:34:48,998,000000,SART,1,go,201,201,25,90,go,2,21ptc,space,1,958,958,3,Go Success,0,13,23,0,178,176,0.0,1,AABB
3.8.10,Windows,11122,11:34:48,998,000000,SART,1,go,202,202,25,90,go,4,19ptc,space,1,958,958,3,Go Success,0,13,23,0,179,177,0.0,1,AABB
3.8.10,Windows,11122,11:34:48,998,000000,SART,1,go,203,203,25,90,go,1,16ptc,space,1,960,960,3,Go Success,0,13,23,0,180,178,0.0,1,AABB
3.8.10,Windows,11122,11:34:48,998,000000,SART,1,go,204,204,25,90,go,7,13ptc,space,1,957,957,3,Go Success,0,13,23,0,181,179,0.0,1,AABB
3.8.10,Windows,11122,11:34:48,998,000000,SART,1,go,205,205,25,90,go,4,10ptc,space,1,960,960,3,Go Success,0,13,23,0,182,180,0.0,1,AABB
3.8.10,Windows,11122,11:34:48,998,000000,SART,1,go,206,206,25,90,go,6,16ptc,space,1,958,958,3,Go Success,0,13,23,0,183,181,0.0,1,AABB
3.8.10,Windows,11122,11:34:48,998,000000,SART,1,go,207,207,25,90,go,9,13ptc,space,1,961,961,3,Go Success,0,13,23,0,184,182,0.0,1,AABB
3.8.10,Windows,11122,11:34:48,998,000000,SART,1,go,208,208,25,90,go,5,21ptc,space,1,955,955,3,Go Success,0,13,23,0,185,183,0.0,1,AABB
3.8.10,Windows,11122,11:34:48,998,000000,SART,1,go,209,209,25,90,go,6,10ptc,space,1,248,248,3,Go Success,0,13,23,0,186,184,0.0,1,AABB
3.8.10,Windows,11122,11:34:48,998,000000,SART,1,go,210,210,25,90,go,8,19ptc,space,1,955,955,3,Go Success,0,13,23,0,187,185,0.0,1,AABB
3.8.10,Windows,11122,11:34:48,998,000000,SART,1,go,211,211,25,90,go,1,16ptc,space,1,960,960,3,Go Success,0,13,23,0,188,186,0.0,1,AABB
3.8.10,Windows,11122,11:34:48,998,000000,SART,1,go,212,212,25,90,go,5,13ptc,space,1,956,956,3,Go Success,0,13,23,0,189,187,1.0,1,AABB
3.8.10,Windows,11122,11:34:48,998,000000,SART,1,go,213,213,25,90,go,1,21ptc,space,1,955,955,3,Go Success,0,13,23,0,190,188,1.0,1,AABB
3.8.10,Windows,11122,11:34:48,998,000000,SART,1,nogo,214,214,25,90,nogo,3,19ptc,space,0,955,955,3,NoGo Failure,0,13,24,0,190,188,1.0,1,AABB
3.8.10,Windows,11122,11:34:48,998,000000,SART,1,go,215,215,25,90,go,6,10ptc,space,1,956,956,3,Go Success,0,13,24,0,191,189,1.0,1,AABB
3.8.10,Windows,11122,11:34:48,998,000000,SART,1,go,216,216,25,90,go,1,10ptc,space,1,955,955,3,Go Success,0,13,24,0,192,190,1.0,1,AABB
3.8.10,Windows,11122,11:34:48,998,000000,SART,1,nogo,217,217,25,90,nogo,3,21ptc,0,1,0,0,0,NoGo Success,0,14,25,0,192,190,1.0,1,AABB
3.8.10,Windows,11122,11:34:48,998,000000,SART,1,go,218,218,25,90,go,6,16ptc,space,1,254,254,3,Go Success,0,14,25,0,193,191,1.0,1,AABB
3.8.10,Windows,11122,11:34:48,998,000000,SART,1,go,219,219,25,90,go,8,19ptc,space,1,955,955,3,Go Success,0,14,25,0,194,192,1.0,1,AABB
3.8.10,Windows,11122,11:34:48,998,000000,SART,1,go,220,220,25,90,go,4,13ptc,space,1,956,956,3,Go Success,0,14,25,0,195,193,0.0,1,AABB
3.8.10,Windows,11122,11:34:48,998,000000,SART,1,go,221,221,25,90,go,9,16ptc,space,1,955,955,3,Go Success,0,14,25,0,196,194,0.0,1,AABB
3.8.10,Windows,11122,11:34:48,998,000000,SART,1,go,222,222,25,90,go,2,10ptc,space,1,959,959,3,Go Success,0,14,25,0,197,195,0.0,1,AABB
3.8.10,Windows,11122,11:34:48,998,000000,SART,1,go,223,223,25,90,go,4,21ptc,space,1,956,956,3,Go Success,0,14,25,0,198,196,0.0,1,AABB
3.8.10,Windows,11122,11:34:48,998,000000,SART,1,go,224,224,25,90,go,4,13ptc,space,1,961,961,3,Go Success,0,14,25,0,199,197,0.0,1,AABB
3.8.10,Windows,11122,11:34:48,998,000000,SART,1,go,225,225,25,90,go,8,19ptc,space,1,956,956,3,Go Success,0,14,25,0,200,198,0.0,1,AABB
3.8.10,Windows,11122,11:34:48,998,000000,SART,2,go,1,226,25,90,go,5,13ptc,0,0,0,0,0,Omission,0,14,25,1,201,198,0.0,1,AABB
3.8.10,Windows,11122,11:34:48,998,000000,SART,2,go,2,227,25,90,go,5,21ptc,space,0,52,52,1,Go Anticipatory,1,14,25,1,202,198,0.0,1,AABB
3.8.10,Windows,11122,11:34:48,998,000000,SART,2,go,3,228,25,90,go,7,10ptc,space,1,958,958,3,Go Success,1,14,25,1,203,199,0.0,1,AABB
3.8.10,Windows,11122,11:34:48,998,000000,SART,2,go,4,229,25,90,go,5,19ptc,space,1,957,957,3,Go Success,1,14,25,1,204,200,0.0,1,AABB
3.8.10,Windows,11122,11:34:48,998,000000,SART,2,go,5,230,25,90,go,5,16ptc,space,1,961,961,3,Go Success,1,14,25,1,205,201,0.0,1,AABB
3.8.10,Windows,11122,11:34:48,998,000000,SART,2,go,6,231,25,90,go,9,10ptc,space,1,959,959,3,Go Success,1,14,25,1,206,202,0.0,1,AABB
3.8.10,Windows,11122,11:34:48,998,000000,SART,2,go,7,232,25,90,go,4,21ptc,space,1,955,955,3,Go Success,1,14,25,1,207,203,1.0,1,AABB
3.8.10,Windows,11122,11:34:48,998,000000,SART,2,go,8,233,25,90,go,4,19ptc,space,1,958,958,3,Go Success,1,14,25,1,208,204,1.0,1,AABB
3.8.10,Windows,11122,11:34:48,998,000000,SART,2,nogo,9,234,25,90,nogo,3,16ptc,space,0,955,955,3,NoGo Failure,1,14,26,1,208,204,1.0,1,AABB
3.8.10,Windows,11122,11:34:48,998,000000,SART,2,nogo,10,235,25,90,nogo,3,13ptc,0,1,0,0,0,NoGo Success,1,15,27,1,208,204,1.0,1,AABB
3.8.10,Windows,11122,11:34:48,998,000000,SART,2,go,11,236,25,90,go,5,21ptc,space,1,956,956,3,Go Success,1,15,27,1,209,205,1.0,1,AABB
3.8.10,Windows,11122,11:34:48,998,000000,SART,2,go,12,237,25,90,go,6,13ptc,space,1,956,956,3,Go Success,1,15,27,1,210,206,1.0,1,AABB
3.8.10,Windows,11122,11:34:48,998,000000,SART,2,go,13,238,25,90,go,6,10ptc,space,1,956,956,3,Go Success,1,15,27,1,211,207,0.0,1,AABB
3.8.10,Windows,11122,11:34:48,998,000000,SART,2,go,14,239,25,90,go,4,16ptc,space,1,956,956,3,Go Success,1,15,27,1,212,208,0.0,1,AABB
3.8.10,Windows,11122,11:34:48,998,000000,SART,2,go,15,240,25,90,go,4,19ptc,space,1,959,959,3,Go Success,1,15,27,1,213,209,0.0,1,AABB
3.8.10,Windows,11122,11:34:48,998,000000,SART,2,go,16,241,25,90,go,6,19ptc,space,1,962,962,3,Go Success,1,15,27,1,214,210,0.0,1,AABB
3.8.10,Windows,11122,11:34:48,998,000000,SART,2,go,17,242,25,90,go,7,10ptc,space,1,957,957,3,Go Success,1,15,27,1,215,211,0.0,1,AABB
3.8.10,Windows,11122,11:34:48,998,000000,SART,2,go,18,243,25,90,go,5,13ptc,space,1,961,961,3,Go Success,1,15,27,1,216,212,0.0,1,AABB
3.8.10,Windows,11122,11:34:48,998,000000,SART,2,go,19,244,25,90,go,8,16ptc,space,1,956,956,3,Go Success,1,15,27,1,217,213,1.0,1,AABB
3.8.10,Windows,11122,11:34:48,998,000000,SART,2,go,20,245,25,90,go,5,21ptc,space,1,956,956,3,Go Success,1,15,27,1,218,214,1.0,1,AABB
3.8.10,Windows,11122,11:34:48,998,000000,SART,2,nogo,21,246,25,90,nogo,3,21ptc,0,1,0,0,0,NoGo Success,1,16,28,1,218,214,1.0,1,AABB
3.8.10,Windows,11122,11:34:48,998,000000,SART,2,go,22,247,25,90,go,8,19ptc,space,1,956,956,3,Go Success,1,16,28,1,219,215,1.0,1,AABB
3.8.10,Windows,11122,11:34:48,998,000000,SART,2,go,23,248,25,90,go,7,16ptc,space,1,955,955,3,Go Success,1,16,28,1,220,216,1.0,1,AABB
3.8.10,Windows,11122,11:34:48,998,000000,SART,2,go,24,249,25,90,go,5,13ptc,space,1,956,956,3,Go Success,1,16,28,1,221,217,0.0,1,AABB
3.8.10,Windows,11122,11:34:48,998,000000,SART,2,go,25,250,25,90,go,4,10ptc,space,1,961,961,3,Go Success,1,16,28,1,222,218,0.0,1,AABB
3.8.10,Windows,11122,11:34:48,998,000000,SART,2,go,26,251,25,90,go,4,10ptc,space,1,963,963,3,Go Success,1,16,28,1,223,219,0.0,1,AABB
3.8.10,Windows,11122,11:34:48,998,000000,SART,2,go,27,252,25,90,go,8,16ptc,space,1,959,959,3,Go Success,1,16,28,1,224,220,0.0,1,AABB
3.8.10,Windows,11122,11:34:48,998,000000,SART,2,go,28,253,25,90,go,6,21ptc,space,1,955,955,3,Go Success,1,16,28,1,225,221,0.0,1,AABB
3.8.10,Windows,11122,11:34:48,998,000000,SART,2,go,29,254,25,90,go,6,19ptc,space,1,957,957,3,Go Success,1,16,28,1,226,222,0.0,1,AABB
3.8.10,Windows,11122,11:34:48,998,000000,SART,2,go,30,255,25,90,go,6,13ptc,space,1,962,962,3,Go Success,1,16,28,1,227,223,0.0,1,AABB
3.8.10,Windows,11122,11:34:48,998,000000,SART,2,go,31,256,25,90,go,9,19ptc,space,1,959,959,3,Go Success,1,16,28,1,228,224,0.0,1,AABB
3.8.10,Windows,11122,11:34:48,998,000000,SART,2,go,32,257,25,90,go,6,16ptc,space,1,957,957,3,Go Success,1,16,28,1,229,225,1.0,1,AABB
3.8.10,Windows,11122,11:34:48,998,000000,SART,2,go,33,258,25,90,go,2,10ptc,space,1,955,955,3,Go Success,1,16,28,1,230,226,1.0,1,AABB
3.8.10,Windows,11122,11:34:48,998,000000,SART,2,nogo,34,259,25,90,nogo,3,13ptc,0,1,0,0,0,NoGo Success,1,17,29,1,230,226,1.0,1,AABB
3.8.10,Windows,11122,11:34:48,998,000000,SART,2,go,35,260,25,90,go,9,21ptc,space,1,956,956,3,Go Success,1,17,29,1,231,227,1.0,1,AABB
3.8.10,Windows,11122,11:34:48,998,000000,SART,2,go,36,261,25,90,go,2,13ptc,space,1,956,956,3,Go Success,1,17,29,1,232,228,1.0,1,AABB
3.8.10,Windows,11122,11:34:48,998,000000,SART,2,go,37,262,25,90,go,8,16ptc,space,1,955,955,3,Go Success,1,17,29,1,233,229,0.0,1,AABB
3.8.10,Windows,11122,11:34:48,998,000000,SART,2,go,38,263,25,90,go,5,21ptc,space,1,956,956,3,Go Success,1,17,29,1,234,230,1.0,1,AABB
3.8.10,Windows,11122,11:34:48,998,000000,SART,2,go,39,264,25,90,go,5,19ptc,space,1,956,956,3,Go Success,1,17,29,1,235,231,1.0,1,AABB
3.8.10,Windows,11122,11:34:48,998,000000,SART,2,nogo,40,265,25,90,nogo,3,10ptc,space,0,240,240,3,NoGo Failure,1,17,30,1,235,231,1.0,1,AABB
3.8.10,Windows,11122,11:34:48,998,000000,SART,2,go,41,266,25,90,go,9,13ptc,space,1,228,228,3,Go Success,1,17,30,1,236,232,1.0,1,AABB
3.8.10,Windows,11122,11:34:48,998,000000,SART,2,go,42,267,25,90,go,7,21ptc,space,1,956,956,3,Go Success,1,17,30,1,237,233,1.0,1,AABB
3.8.10,Windows,11122,11:34:48,998,000000,SART,2,go,43,268,25,90,go,1,16ptc,space,1,955,955,3,Go Success,1,17,30,1,238,234,0.0,1,AABB
3.8.10,Windows,11122,11:34:48,998,000000,SART,2,go,44,269,25,90,go,1,19ptc,space,1,956,956,3,Go Success,1,17,30,1,239,235,0.0,1,AABB
3.8.10,Windows,11122,11:34:48,998,000000,SART,2,go,45,270,25,90,go,6,10ptc,space,1,955,955,3,Go Success,1,17,30,1,240,236,0.0,1,AABB
3.8.10,Windows,11122,11:34:48,998,000000,SART,2,go,46,271,25,90,go,9,19ptc,space,1,955,955,3,Go Success,1,17,30,1,241,237,0.0,1,AABB
3.8.10,Windows,11122,11:34:48,998,000000,SART,2,go,47,272,25,90,go,6,16ptc,0,0,0,0,0,Omission,1,17,30,2,242,237,0.0,1,AABB
3.8.10,Windows,11122,11:34:48,998,000000,SART,2,go,48,273,25,90,go,7,13ptc,0,0,0,0,0,Omission,1,17,30,3,243,237,0.0,1,AABB
3.8.10,Windows,11122,11:34:48,998,000000,SART,2,go,49,274,25,90,go,5,10ptc,0,0,0,0,0,Omission,1,17,30,4,244,237,0.0,1,AABB
3.8.10,Windows,11122,11:34:48,998,000000,SART,2,go,50,275,25,90,go,2,21ptc,0,0,0,0,0,Omission,1,17,30,5,245,237,0.0,1,AABB
3.8.10,Windows,11122,11:34:48,998,000000,SART,2,go,51,276,25,90,go,4,16ptc,0,0,0,0,0,Omission,1,17,30,6,246,237,0.0,1,AABB
3.8.10,Windows,11122,11:34:48,998,000000,SART,2,go,52,277,25,90,go,2,13ptc,0,0,0,0,0,Omission,1,17,30,7,247,237,0.0,1,AABB
3.8.10,Windows,11122,11:34:48,998,000000,SART,2,go,53,278,25,90,go,9,19ptc,0,0,0,0,0,Omission,1,17,30,8,248,237,1.0,1,AABB
3.8.10,Windows,11122,11:34:48,998,000000,SART,2,go,54,279,25,90,go,7,10ptc,0,0,0,0,0,Omission,1,17,30,9,249,237,1.0,1,AABB
3.8.10,Windows,11122,11:34:48,998,000000,SART,2,nogo,55,280,25,90,nogo,3,21ptc,0,1,0,0,0,NoGo Success,1,18,31,9,249,237,1.0,1,AABB
3.8.10,Windows,11122,11:34:48,998,000000,SART,2,nogo,56,281,25,90,nogo,3,10ptc,space,0,955,955,3,NoGo Failure,1,18,32,9,249,237,1.0,1,AABB
3.8.10,Windows,11122,11:34:48,998,000000,SART,2,go,57,282,25,90,go,2,21ptc,space,1,955,955,3,Go Success,1,18,32,9,250,238,1.0,1,AABB
3.8.10,Windows,11122,11:34:48,998,000000,SART,2,go,58,283,25,90,go,5,13ptc,space,1,955,955,3,Go Success,1,18,32,9,251,239,1.0,1,AABB
3.8.10,Windows,11122,11:34:48,998,000000,SART,2,go,59,284,25,90,go,1,16ptc,space,1,956,956,3,Go Success,1,18,32,9,252,240,0.0,1,AABB
3.8.10,Windows,11122,11:34:48,998,000000,SART,2,go,60,285,25,90,go,8,19ptc,space,0,181,181,2,Go Ambiguous,1,18,32,9,253,240,0.0,1,AABB
3.8.10,Windows,11122,11:34:48,998,000000,SART,2,go,61,286,25,90,go,5,19ptc,0,0,0,0,0,Omission,1,18,32,10,254,240,0.0,1,AABB
3.8.10,Windows,11122,11:34:48,998,000000,SART,2,go,62,287,25,90,go,2,16ptc,space,1,1094,1094,3,Go Success,1,18,32,10,255,241,0.0,1,AABB
3.8.10,Windows,11122,11:34:48,998,000000,SART,2,go,63,288,25,90,go,9,21ptc,space,1,955,955,3,Go Success,1,18,32,10,256,242,0.0,1,AABB
3.8.10,Windows,11122,11:34:48,998,000000,SART,2,go,64,289,25,90,go,9,10ptc,space,1,960,960,3,Go Success,1,18,32,10,257,243,0.0,1,AABB
3.8.10,Windows,11122,11:34:48,998,000000,SART,2,go,65,290,25,90,go,8,13ptc,space,1,960,960,3,Go Success,1,18,32,10,258,244,0.0,1,AABB
3.8.10,Windows,11122,11:34:48,998,000000,SART,2,go,66,291,25,90,go,1,16ptc,space,1,960,960,3,Go Success,1,18,32,10,259,245,0.0,1,AABB
3.8.10,Windows,11122,11:34:48,998,000000,SART,2,go,67,292,25,90,go,7,10ptc,space,1,958,958,3,Go Success,1,18,32,10,260,246,0.0,1,AABB
3.8.10,Windows,11122,11:34:48,998,000000,SART,2,go,68,293,25,90,go,7,19ptc,space,1,957,957,3,Go Success,1,18,32,10,261,247,0.0,1,AABB
3.8.10,Windows,11122,11:34:48,998,000000,SART,2,go,69,294,25,90,go,8,21ptc,space,1,956,956,3,Go Success,1,18,32,10,262,248,0.0,1,AABB
3.8.10,Windows,11122,11:34:48,998,000000,SART,2,go,70,295,25,90,go,4,13ptc,0,0,0,0,0,Omission,1,18,32,11,263,248,0.0,1,AABB
3.8.10,Windows,11122,11:34:48,998,000000,SART,2,go,71,296,25,90,go,5,13ptc,0,0,0,0,0,Omission,1,18,32,12,264,248,0.0,1,AABB
3.8.10,Windows,11122,11:34:48,998,000000,SART,2,go,72,297,25,90,go,2,16ptc,0,0,0,0,0,Omission,1,18,32,13,265,248,0.0,1,AABB
3.8.10,Windows,11122,11:34:48,998,000000,SART,2,go,73,298,25,90,go,9,10ptc,0,0,0,0,0,Omission,1,18,32,14,266,248,0.0,1,AABB
3.8.10,Windows,11122,11:34:48,998,000000,SART,2,go,74,299,25,90,go,6,21ptc,0,0,0,0,0,Omission,1,18,32,15,267,248,0.0,1,AABB
3.8.10,Windows,11122,11:34:48,998,000000,SART,2,go,75,300,25,90,go,8,19ptc,0,0,0,0,0,Omission,1,18,32,16,268,248,0.0,1,AABB
3.8.10,Windows,11122,11:34:48,998,000000,SART,2,go,76,301,25,90,go,1,21ptc,0,0,0,0,0,Omission,1,18,32,17,269,248,0.0,1,AABB
3.8.10,Windows,11122,11:34:48,998,000000,SART,2,go,77,302,25,90,go,6,16ptc,0,0,0,0,0,Omission,1,18,32,18,270,248,0.0,1,AABB
3.8.10,Windows,11122,11:34:48,998,000000,SART,2,go,78,303,25,90,go,9,19ptc,0,0,0,0,0,Omission,1,18,32,19,271,248,0.0,1,AABB
3.8.10,Windows,11122,11:34:48,998,000000,SART,2,go,79,304,25,90,go,8,10ptc,0,0,0,0,0,Omission,1,18,32,20,272,248,0.0,1,AABB
3.8.10,Windows,11122,11:34:48,998,000000,SART,2,go,80,305,25,90,go,1,13ptc,0,0,0,0,0,Omission,1,18,32,21,273,248,0.0,1,AABB
3.8.10,Windows,11122,11:34:48,998,000000,SART,2,go,81,306,25,90,go,1,16ptc,0,0,0,0,0,Omission,1,18,32,22,274,248,0.0,1,AABB
3.8.10,Windows,11122,11:34:48,998,000000,SART,2,go,82,307,25,90,go,4,21ptc,space,1,957,957,3,Go Success,1,18,32,22,275,249,0.0,1,AABB
3.8.10,Windows,11122,11:34:48,998,000000,SART,2,go,83,308,25,90,go,2,10ptc,space,1,958,958,3,Go Success,1,18,32,22,276,250,0.0,1,AABB
3.8.10,Windows,11122,11:34:48,998,000000,SART,2,go,84,309,25,90,go,6,13ptc,space,1,958,958,3,Go Success,1,18,32,22,277,251,0.0,1,AABB
3.8.10,Windows,11122,11:34:48,998,000000,SART,2,go,85,310,25,90,go,4,19ptc,0,0,0,0,0,Omission,1,18,32,23,278,251,0.0,1,AABB
3.8.10,Windows,11122,11:34:48,998,000000,SART,2,go,86,311,25,90,go,4,21ptc,0,0,0,0,0,Omission,1,18,32,24,279,251,0.0,1,AABB
3.8.10,Windows,11122,11:34:48,998,000000,SART,2,go,87,312,25,90,go,7,10ptc,space,1,960,960,3,Go Success,1,18,32,24,280,252,0.0,1,AABB
3.8.10,Windows,11122,11:34:48,998,000000,SART,2,go,88,313,25,90,go,6,19ptc,space,1,955,955,3,Go Success,1,18,32,24,281,253,0.0,1,AABB
3.8.10,Windows,11122,11:34:48,998,000000,SART,2,go,89,314,25,90,go,2,13ptc,space,1,959,959,3,Go Success,1,18,32,24,282,254,0.0,1,AABB
3.8.10,Windows,11122,11:34:48,998,000000,SART,2,go,90,315,25,90,go,4,16ptc,space,1,961,961,3,Go Success,1,18,32,24,283,255,0.0,1,AABB
3.8.10,Windows,11122,11:34:48,998,000000,SART,2,go,91,316,25,90,go,2,16ptc,space,1,958,958,3,Go Success,1,18,32,24,284,256,0.0,1,AABB
3.8.10,Windows,11122,11:34:48,998,000000,SART,2,go,92,317,25,90,go,1,10ptc,space,1,961,961,3,Go Success,1,18,32,24,285,257,0.0,1,AABB
3.8.10,Windows,11122,11:34:48,998,000000,SART,2,go,93,318,25,90,go,2,19ptc,space,1,234,234,3,Go Success,1,18,32,24,286,258,0.0,1,AABB
3.8.10,Windows,11122,11:34:48,998,000000,SART,2,go,94,319,25,90,go,4,13ptc,space,1,244,244,3,Go Success,1,18,32,24,287,259,0.0,1,AABB
3.8.10,Windows,11122,11:34:48,998,000000,SART,2,go,95,320,25,90,go,8,21ptc,space,1,252,252,3,Go Success,1,18,32,24,288,260,0.0,1,AABB
3.8.10,Windows,11122,11:34:48,998,000000,SART,2,go,96,321,25,90,go,8,21ptc,space,1,211,211,3,Go Success,1,18,32,24,289,261,1.0,1,AABB
3.8.10,Windows,11122,11:34:48,998,000000,SART,2,go,97,322,25,90,go,5,13ptc,space,1,245,245,3,Go Success,1,18,32,24,290,262,1.0,1,AABB
3.8.10,Windows,11122,11:34:48,998,000000,SART,2,nogo,98,323,25,90,nogo,3,10ptc,space,0,956,956,3,NoGo Failure,1,18,33,24,290,262,1.0,1,AABB
3.8.10,Windows,11122,11:34:48,998,000000,SART,2,nogo,99,324,25,90,nogo,3,16ptc,0,1,0,0,0,NoGo Success,1,19,34,24,290,262,1.0,1,AABB
3.8.10,Windows,11122,11:34:48,998,000000,SART,2,go,100,325,25,90,go,5,19ptc,space,1,956,956,3,Go Success,1,19,34,24,291,263,1.0,1,AABB
3.8.10,Windows,11122,11:34:48,998,000000,SART,2,go,101,326,25,90,go,1,13ptc,space,1,956,956,3,Go Success,1,19,34,24,292,264,1.0,1,AABB
3.8.10,Windows,11122,11:34:48,998,000000,SART,2,nogo,102,327,25,90,nogo,3,16ptc,space,0,957,957,3,NoGo Failure,1,19,35,24,292,264,1.0,1,AABB
3.8.10,Windows,11122,11:34:48,998,000000,SART,2,go,103,328,25,90,go,7,21ptc,space,1,956,956,3,Go Success,1,19,35,24,293,265,1.0,1,AABB
3.8.10,Windows,11122,11:34:48,998,000000,SART,2,go,104,329,25,90,go,1,19ptc,space,1,956,956,3,Go Success,1,19,35,24,294,266,1.0,1,AABB
3.8.10,Windows,11122,11:34:48,998,000000,SART,2,go,105,330,25,90,go,8,10ptc,space,1,956,956,3,Go Success,1,19,35,24,295,267,0.0,1,AABB
3.8.10,Windows,11122,11:34:48,998,000000,SART,2,go,106,331,25,90,go,1,21ptc,space,1,956,956,3,Go Success,1,19,35,24,296,268,0.0,1,AABB
3.8.10,Windows,11122,11:34:48,998,000000,SART,2,go,107,332,25,90,go,7,13ptc,space,1,955,955,3,Go Success,1,19,35,24,297,269,0.0,1,AABB
3.8.10,Windows,11122,11:34:48,998,000000,SART,2,go,108,333,25,90,go,7,19ptc,space,1,960,960,3,Go Success,1,19,35,24,298,270,0.0,1,AABB
3.8.10,Windows,11122,11:34:48,998,000000,SART,2,go,109,334,25,90,go,6,10ptc,space,1,960,960,3,Go Success,1,19,35,24,299,271,0.0,1,AABB
3.8.10,Windows,11122,11:34:48,998,000000,SART,2,go,110,335,25,90,go,2,16ptc,space,1,243,243,3,Go Success,1,19,35,24,300,272,0.0,1,AABB
3.8.10,Windows,11122,11:34:48,998,000000,SART,2,go,111,336,25,90,go,7,13ptc,space,1,959,959,3,Go Success,1,19,35,24,301,273,1.0,1,AABB
3.8.10,Windows,11122,11:34:48,998,000000,SART,2,go,112,337,25,90,go,2,19ptc,space,1,955,955,3,Go Success,1,19,35,24,302,274,1.0,1,AABB
3.8.10,Windows,11122,11:34:48,998,000000,SART,2,nogo,113,338,25,90,nogo,3,10ptc,0,1,0,0,0,NoGo Success,1,20,36,24,302,274,1.0,1,AABB
3.8.10,Windows,11122,11:34:48,998,000000,SART,2,go,114,339,25,90,go,1,21ptc,space,1,955,955,3,Go Success,1,20,36,24,303,275,1.0,1,AABB
3.8.10,Windows,11122,11:34:48,998,000000,SART,2,go,115,340,25,90,go,9,16ptc,space,1,957,957,3,Go Success,1,20,36,24,304,276,1.0,1,AABB
3.8.10,Windows,11122,11:34:48,998,000000,SART,2,go,116,341,25,90,go,8,10ptc,space,1,955,955,3,Go Success,1,20,36,24,305,277,0.0,1,AABB
3.8.10,Windows,11122,11:34:48,998,000000,SART,2,go,117,342,25,90,go,5,21ptc,space,1,955,955,3,Go Success,1,20,36,24,306,278,1.0,1,AABB
3.8.10,Windows,11122,11:34:48,998,000000,SART,2,go,118,343,25,90,go,6,13ptc,space,1,956,956,3,Go Success,1,20,36,24,307,279,1.0,1,AABB
3.8.10,Windows,11122,11:34:48,998,000000,SART,2,nogo,119,344,25,90,nogo,3,19ptc,space,0,956,956,3,NoGo Failure,1,20,37,24,307,279,1.0,1,AABB
3.8.10,Windows,11122,11:34:48,998,000000,SART,2,nogo,120,345,25,90,nogo,3,16ptc,0,1,0,0,0,NoGo Success,1,21,38,24,307,279,1.0,1,AABB
3.8.10,Windows,11122,11:34:48,998,000000,SART,2,nogo,121,346,25,90,nogo,3,19ptc,space,0,956,956,3,NoGo Failure,1,21,39,24,307,279,1.0,1,AABB
3.8.10,Windows,11122,11:34:48,998,000000,SART,2,go,122,347,25,90,go,5,16ptc,space,1,956,956,3,Go Success,1,21,39,24,308,280,1.0,1,AABB
3.8.10,Windows,11122,11:34:48,998,000000,SART,2,go,123,348,25,90,go,4,21ptc,space,1,954,954,3,Go Success,1,21,39,24,309,281,1.0,1,AABB
3.8.10,Windows,11122,11:34:48,998,000000,SART,2,go,124,349,25,90,go,7,13ptc,space,1,956,956,3,Go Success,1,21,39,24,310,282,0.0,1,AABB
3.8.10,Windows,11122,11:34:48,998,000000,SART,2,go,125,350,25,90,go,2,10ptc,space,1,956,956,3,Go Success,1,21,39,24,311,283,0.0,1,AABB
3.8.10,Windows,11122,11:34:48,998,000000,SART,2,go,126,351,25,90,go,2,19ptc,space,1,956,956,3,Go Success,1,21,39,24,312,284,0.0,1,AABB
3.8.10,Windows,11122,11:34:48,998,000000,SART,2,go,127,352,25,90,go,6,10ptc,space,1,960,960,3,Go Success,1,21,39,24,313,285,0.0,1,AABB
3.8.10,Windows,11122,11:34:48,998,000000,SART,2,go,128,353,25,90,go,2,16ptc,space,1,956,956,3,Go Success,1,21,39,24,314,286,0.0,1,AABB
3.8.10,Windows,11122,11:34:48,998,000000,SART,2,go,129,354,25,90,go,7,21ptc,space,1,957,957,3,Go Success,1,21,39,24,315,287,0.0,1,AABB
3.8.10,Windows,11122,11:34:48,998,000000,SART,2,go,130,355,25,90,go,6,13ptc,space,1,960,960,3,Go Success,1,21,39,24,316,288,1.0,1,AABB
3.8.10,Windows,11122,11:34:48,998,000000,SART,2,go,131,356,25,90,go,4,13ptc,space,1,955,955,3,Go Success,1,21,39,24,317,289,1.0,1,AABB
3.8.10,Windows,11122,11:34:48,998,000000,SART,2,nogo,132,357,25,90,nogo,3,16ptc,0,1,0,0,0,NoGo Success,1,22,40,24,317,289,1.0,1,AABB
3.8.10,Windows,11122,11:34:48,998,000000,SART,2,go,133,358,25,90,go,5,21ptc,space,1,955,955,3,Go Success,1,22,40,24,318,290,1.0,1,AABB
3.8.10,Windows,11122,11:34:48,998,000000,SART,2,go,134,359,25,90,go,8,10ptc,space,1,957,957,3,Go Success,1,22,40,24,319,291,1.0,1,AABB
3.8.10,Windows,11122,11:34:48,998,000000,SART,2,go,135,360,25,90,go,4,19ptc,space,1,956,956,3,Go Success,1,22,40,24,320,292,0.0,1,AABB
3.8.10,Windows,11122,11:34:48,998,000000,SART,2,go,136,361,25,90,go,1,16ptc,space,1,956,956,3,Go Success,1,22,40,24,321,293,1.0,1,AABB
3.8.10,Windows,11122,11:34:48,998,000000,SART,2,go,137,362,25,90,go,2,10ptc,space,1,956,956,3,Go Success,1,22,40,24,322,294,1.0,1,AABB
3.8.10,Windows,11122,11:34:48,998,000000,SART,2,nogo,138,363,25,90,nogo,3,13ptc,0,1,0,0,0,NoGo Success,1,23,41,24,322,294,1.0,1,AABB
3.8.10,Windows,11122,11:34:48,998,000000,SART,2,go,139,364,25,90,go,5,19ptc,space,1,955,955,3,Go Success,1,23,41,24,323,295,1.0,1,AABB
3.8.10,Windows,11122,11:34:48,998,000000,SART,2,go,140,365,25,90,go,8,21ptc,space,1,956,956,3,Go Success,1,23,41,24,324,296,1.0,1,AABB
3.8.10,Windows,11122,11:34:48,998,000000,SART,2,nogo,141,366,25,90,nogo,3,21ptc,0,1,0,0,0,NoGo Success,1,24,42,24,324,296,1.0,1,AABB
3.8.10,Windows,11122,11:34:48,998,000000,SART,2,nogo,142,367,25,90,nogo,3,19ptc,space,0,956,956,3,NoGo Failure,1,24,43,24,324,296,1.0,1,AABB
3.8.10,Windows,11122,11:34:48,998,000000,SART,2,go,143,368,25,90,go,1,10ptc,space,1,955,955,3,Go Success,1,24,43,24,325,297,1.0,1,AABB
3.8.10,Windows,11122,11:34:48,998,000000,SART,2,go,144,369,25,90,go,8,16ptc,space,1,956,956,3,Go Success,1,24,43,24,326,298,1.0,1,AABB
3.8.10,Windows,11122,11:34:48,998,000000,SART,2,nogo,145,370,25,90,nogo,3,13ptc,0,1,0,0,0,NoGo Success,1,25,44,24,326,298,1.0,1,AABB
3.8.10,Windows,11122,11:34:48,998,000000,SART,2,nogo,146,371,25,90,nogo,3,13ptc,0,1,0,0,0,NoGo Success,1,26,45,24,326,298,1.0,1,AABB
3.8.10,Windows,11122,11:34:48,998,000000,SART,2,go,147,372,25,90,go,9,19ptc,space,1,955,955,3,Go Success,1,26,45,24,327,299,1.0,1,AABB
3.8.10,Windows,11122,11:34:48,998,000000,SART,2,go,148,373,25,90,go,1,16ptc,space,1,957,957,3,Go Success,1,26,45,24,328,300,1.0,1,AABB
3.8.10,Windows,11122,11:34:48,998,000000,SART,2,go,149,374,25,90,go,7,10ptc,space,1,955,955,3,Go Success,1,26,45,24,329,301,0.0,1,AABB
3.8.10,Windows,11122,11:34:48,998,000000,SART,2,go,150,375,25,90,go,1,21ptc,space,1,956,956,3,Go Success,1,26,45,24,330,302,0.0,1,AABB
3.8.10,Windows,11122,11:34:48,998,000000,SART,2,go,151,376,25,90,go,6,21ptc,space,1,957,957,3,Go Success,1,26,45,24,331,303,0.0,1,AABB
3.8.10,Windows,11122,11:34:48,998,000000,SART,2,go,152,377,25,90,go,9,19ptc,0,0,0,0,0,Omission,1,26,45,25,332,303,0.0,1,AABB
3.8.10,Windows,11122,11:34:48,998,000000,SART,2,go,153,378,25,90,go,4,13ptc,space,1,960,960,3,Go Success,1,26,45,25,333,304,0.0,1,AABB
3.8.10,Windows,11122,11:34:48,998,000000,SART,2,go,154,379,25,90,go,7,16ptc,space,1,956,956,3,Go Success,1,26,45,25,334,305,0.0,1,AABB
3.8.10,Windows,11122,11:34:48,998,000000,SART,2,go,155,380,25,90,go,2,10ptc,space,1,960,960,3,Go Success,1,26,45,25,335,306,0.0,1,AABB
3.8.10,Windows,11122,11:34:48,998,000000,SART,2,go,156,381,25,90,go,2,19ptc,space,1,957,957,3,Go Success,1,26,45,25,336,307,0.0,1,AABB
3.8.10,Windows,11122,11:34:48,998,000000,SART,2,go,157,382,25,90,go,4,21ptc,space,1,957,957,3,Go Success,1,26,45,25,337,308,0.0,1,AABB
3.8.10,Windows,11122,11:34:48,998,000000,SART,2,go,158,383,25,90,go,1,16ptc,space,1,959,959,3,Go Success,1,26,45,25,338,309,0.0,1,AABB
3.8.10,Windows,11122,11:34:48,998,000000,SART,2,go,159,384,25,90,go,4,13ptc,space,1,959,959,3,Go Success,1,26,45,25,339,310,0.0,1,AABB
3.8.10,Windows,11122,11:34:48,998,000000,SART,2,go,160,385,25,90,go,8,10ptc,space,1,958,958,3,Go Success,1,26,45,25,340,311,0.0,1,AABB
3.8.10,Windows,11122,11:34:48,998,000000,SART,2,go,161,386,25,90,go,9,10ptc,space,1,253,253,3,Go Success,1,26,45,25,341,312,0.0,1,AABB
3.8.10,Windows,11122,11:34:48,998,000000,SART,2,go,162,387,25,90,go,7,13ptc,space,1,958,958,3,Go Success,1,26,45,25,342,313,0.0,1,AABB
3.8.10,Windows,11122,11:34:48,998,000000,SART,2,go,163,388,25,90,go,1,19ptc,space,1,960,960,3,Go Success,1,26,45,25,343,314,0.0,1,AABB
3.8.10,Windows,11122,11:34:48,998,000000,SART,2,go,164,389,25,90,go,2,16ptc,space,1,234,234,3,Go Success,1,26,45,25,344,315,0.0,1,AABB
3.8.10,Windows,11122,11:34:48,998,000000,SART,2,go,165,390,25,90,go,7,21ptc,space,1,955,955,3,Go Success,1,26,45,25,345,316,0.0,1,AABB
3.8.10,Windows,11122,11:34:48,998,000000,SART,2,go,166,391,25,90,go,9,16ptc,space,1,957,957,3,Go Success,1,26,45,25,346,317,0.0,1,AABB
3.8.10,Windows,11122,11:34:48,998,000000,SART,2,go,167,392,25,90,go,8,10ptc,space,1,959,959,3,Go Success,1,26,45,25,347,318,0.0,1,AABB
3.8.10,Windows,11122,11:34:48,998,000000,SART,2,go,168,393,25,90,go,2,13ptc,space,1,958,958,3,Go Success,1,26,45,25,348,319,0.0,1,AABB
3.8.10,Windows,11122,11:34:48,998,000000,SART,2,go,169,394,25,90,go,7,21ptc,space,1,959,959,3,Go Success,1,26,45,25,349,320,0.0,1,AABB
3.8.10,Windows,11122,11:34:48,998,000000,SART,2,go,170,395,25,90,go,9,19ptc,space,1,238,238,3,Go Success,1,26,45,25,350,321,1.0,1,AABB
3.8.10,Windows,11122,11:34:48,998,000000,SART,2,go,171,396,25,90,go,8,19ptc,space,1,244,244,3,Go Success,1,26,45,25,351,322,1.0,1,AABB
3.8.10,Windows,11122,11:34:48,998,000000,SART,2,nogo,172,397,25,90,nogo,3,10ptc,space,0,232,232,3,NoGo Failure,1,26,46,25,351,322,1.0,1,AABB
3.8.10,Windows,11122,11:34:48,998,000000,SART,2,go,173,398,25,90,go,7,16ptc,space,1,956,956,3,Go Success,1,26,46,25,352,323,1.0,1,AABB
3.8.10,Windows,11122,11:34:48,998,000000,SART,2,go,174,399,25,90,go,6,13ptc,space,1,246,246,3,Go Success,1,26,46,25,353,324,1.0,1,AABB
3.8.10,Windows,11122,11:34:48,998,000000,SART,2,go,175,400,25,90,go,7,21ptc,space,1,956,956,3,Go Success,1,26,46,25,354,325,0.0,1,AABB
3.8.10,Windows,11122,11:34:48,998,000000,SART,2,go,176,401,25,90,go,4,19ptc,space,1,241,241,3,Go Success,1,26,46,25,355,326,0.0,1,AABB
3.8.10,Windows,11122,11:34:48,998,000000,SART,2,go,177,402,25,90,go,9,21ptc,space,1,956,956,3,Go Success,1,26,46,25,356,327,0.0,1,AABB
3.8.10,Windows,11122,11:34:48,998,000000,SART,2,go,178,403,25,90,go,5,13ptc,space,1,240,240,3,Go Success,1,26,46,25,357,328,0.0,1,AABB
3.8.10,Windows,11122,11:34:48,998,000000,SART,2,go,179,404,25,90,go,2,10ptc,space,1,956,956,3,Go Success,1,26,46,25,358,329,0.0,1,AABB
3.8.10,Windows,11122,11:34:48,998,000000,SART,2,go,180,405,25,90,go,4,16ptc,space,1,958,958,3,Go Success,1,26,46,25,359,330,0.0,1,AABB
3.8.10,Windows,11122,11:34:48,998,000000,SART,2,go,181,406,25,90,go,9,19ptc,space,1,958,958,3,Go Success,1,26,46,25,360,331,1.0,1,AABB
3.8.10,Windows,11122,11:34:48,998,000000,SART,2,go,182,407,25,90,go,6,10ptc,space,1,956,956,3,Go Success,1,26,46,25,361,332,1.0,1,AABB
3.8.10,Windows,11122,11:34:48,998,000000,SART,2,nogo,183,408,25,90,nogo,3,16ptc,space,0,956,956,3,NoGo Failure,1,26,47,25,361,332,1.0,1,AABB
3.8.10,Windows,11122,11:34:48,998,000000,SART,2,go,184,409,25,90,go,6,21ptc,space,1,954,954,3,Go Success,1,26,47,25,362,333,1.0,1,AABB
3.8.10,Windows,11122,11:34:48,998,000000,SART,2,go,185,410,25,90,go,9,13ptc,0,0,0,0,0,Omission,1,26,47,26,363,333,1.0,1,AABB
3.8.10,Windows,11122,11:34:48,998,000000,SART,2,go,186,411,25,90,go,8,16ptc,space,1,955,955,3,Go Success,1,26,47,26,364,334,0.0,1,AABB
3.8.10,Windows,11122,11:34:48,998,000000,SART,2,go,187,412,25,90,go,7,10ptc,space,1,955,955,3,Go Success,1,26,47,26,365,335,0.0,1,AABB
3.8.10,Windows,11122,11:34:48,998,000000,SART,2,go,188,413,25,90,go,5,21ptc,space,1,955,955,3,Go Success,1,26,47,26,366,336,0.0,1,AABB
3.8.10,Windows,11122,11:34:48,998,000000,SART,2,go,189,414,25,90,go,1,13ptc,space,1,229,229,3,Go Success,1,26,47,26,367,337,0.0,1,AABB
3.8.10,Windows,11122,11:34:48,998,000000,SART,2,go,190,415,25,90,go,9,19ptc,space,1,251,251,3,Go Success,1,26,47,26,368,338,0.0,1,AABB
3.8.10,Windows,11122,11:34:48,998,000000,SART,2,go,191,416,25,90,go,1,16ptc,space,1,956,956,3,Go Success,1,26,47,26,369,339,0.0,1,AABB
3.8.10,Windows,11122,11:34:48,998,000000,SART,2,go,192,417,25,90,go,1,10ptc,space,1,959,959,3,Go Success,1,26,47,26,370,340,0.0,1,AABB
3.8.10,Windows,11122,11:34:48,998,000000,SART,2,go,193,418,25,90,go,2,21ptc,space,1,956,956,3,Go Success,1,26,47,26,371,341,0.0,1,AABB
3.8.10,Windows,11122,11:34:48,998,000000,SART,2,go,194,419,25,90,go,9,13ptc,space,1,959,959,3,Go Success,1,26,47,26,372,342,0.0,1,AABB
3.8.10,Windows,11122,11:34:48,998,000000,SART,2,go,195,420,25,90,go,5,19ptc,space,1,956,956,3,Go Success,1,26,47,26,373,343,0.0,1,AABB
3.8.10,Windows,11122,11:34:48,998,000000,SART,2,go,196,421,25,90,go,9,19ptc,space,1,259,259,3,Go Success,1,26,47,26,374,344,1.0,1,AABB
3.8.10,Windows,11122,11:34:48,998,000000,SART,2,go,197,422,25,90,go,8,21ptc,space,1,956,956,3,Go Success,1,26,47,26,375,345,1.0,1,AABB
3.8.10,Windows,11122,11:34:48,998,000000,SART,2,nogo,198,423,25,90,nogo,3,10ptc,0,1,0,0,0,NoGo Success,1,27,48,26,375,345,1.0,1,AABB
3.8.10,Windows,11122,11:34:48,998,000000,SART,2,go,199,424,25,90,go,6,16ptc,space,1,954,954,3,Go Success,1,27,48,26,376,346,1.0,1,AABB
3.8.10,Windows,11122,11:34:48,998,000000,SART,2,go,200,425,25,90,go,8,13ptc,space,1,957,957,3,Go Success,1,27,48,26,377,347,1.0,1,AABB
3.8.10,Windows,11122,11:34:48,998,000000,SART,2,go,201,426,25,90,go,6,13ptc,space,1,955,955,3,Go Success,1,27,48,26,378,348,0.0,1,AABB
3.8.10,Windows,11122,11:34:48,998,000000,SART,2,go,202,427,25,90,go,9,19ptc,space,1,237,237,3,Go Success,1,27,48,26,379,349,0.0,1,AABB
3.8.10,Windows,11122,11:34:48,998,000000,SART,2,go,203,428,25,90,go,1,10ptc,space,1,244,244,3,Go Success,1,27,48,26,380,350,0.0,1,AABB
3.8.10,Windows,11122,11:34:48,998,000000,SART,2,go,204,429,25,90,go,4,16ptc,space,1,959,959,3,Go Success,1,27,48,26,381,351,0.0,1,AABB
3.8.10,Windows,11122,11:34:48,998,000000,SART,2,go,205,430,25,90,go,2,21ptc,space,1,957,957,3,Go Success,1,27,48,26,382,352,0.0,1,AABB
3.8.10,Windows,11122,11:34:48,998,000000,SART,2,go,206,431,25,90,go,9,10ptc,space,1,960,960,3,Go Success,1,27,48,26,383,353,0.0,1,AABB
3.8.10,Windows,11122,11:34:48,998,000000,SART,2,go,207,432,25,90,go,8,13ptc,space,1,248,248,3,Go Success,1,27,48,26,384,354,0.0,1,AABB
3.8.10,Windows,11122,11:34:48,998,000000,SART,2,go,208,433,25,90,go,9,21ptc,space,1,956,956,3,Go Success,1,27,48,26,385,355,0.0,1,AABB
3.8.10,Windows,11122,11:34:48,998,000000,SART,2,go,209,434,25,90,go,5,19ptc,space,1,244,244,3,Go Success,1,27,48,26,386,356,0.0,1,AABB
3.8.10,Windows,11122,11:34:48,998,000000,SART,2,go,210,435,25,90,go,8,16ptc,space,1,239,239,3,Go Success,1,27,48,26,387,357,1.0,1,AABB
3.8.10,Windows,11122,11:34:48,998,000000,SART,2,go,211,436,25,90,go,7,10ptc,space,1,955,955,3,Go Success,1,27,48,26,388,358,1.0,1,AABB
3.8.10,Windows,11122,11:34:48,998,000000,SART,2,nogo,212,437,25,90,nogo,3,16ptc,space,0,955,955,3,NoGo Failure,1,27,49,26,388,358,1.0,1,AABB
3.8.10,Windows,11122,11:34:48,998,000000,SART,2,go,213,438,25,90,go,6,19ptc,space,1,955,955,3,Go Success,1,27,49,26,389,359,1.0,1,AABB
3.8.10,Windows,11122,11:34:48,998,000000,SART,2,go,214,439,25,90,go,6,21ptc,space,1,956,956,3,Go Success,1,27,49,26,390,360,1.0,1,AABB
3.8.10,Windows,11122,11:34:48,998,000000,SART,2,go,215,440,25,90,go,8,13ptc,space,1,955,955,3,Go Success,1,27,49,26,391,361,0.0,1,AABB
3.8.10,Windows,11122,11:34:48,998,000000,SART,2,go,216,441,25,90,go,4,10ptc,space,1,955,955,3,Go Success,1,27,49,26,392,362,0.0,1,AABB
3.8.10,Windows,11122,11:34:48,998,000000,SART,2,go,217,442,25,90,go,5,13ptc,space,1,956,956,3,Go Success,1,27,49,26,393,363,0.0,1,AABB
3.8.10,Windows,11122,11:34:48,998,000000,SART,2,go,218,443,25,90,go,4,21ptc,space,1,956,956,3,Go Success,1,27,49,26,394,364,0.0,1,AABB
3.8.10,Windows,11122,11:34:48,998,000000,SART,2,go,219,444,25,90,go,2,16ptc,space,1,955,955,3,Go Success,1,27,49,26,395,365,0.0,1,AABB
3.8.10,Windows,11122,11:34:48,998,000000,SART,2,go,220,445,25,90,go,7,19ptc,space,1,959,959,3,Go Success,1,27,49,26,396,366,1.0,1,AABB
3.8.10,Windows,11122,11:34:48,998,000000,SART,2,go,221,446,25,90,go,1,13ptc,space,1,955,955,3,Go Success,1,27,49,26,397,367,1.0,1,AABB
3.8.10,Windows,11122,11:34:48,998,000000,SART,2,nogo,222,447,25,90,nogo,3,10ptc,0,1,0,0,0,NoGo Success,1,28,50,26,397,367,1.0,1,AABB
3.8.10,Windows,11122,11:34:48,998,000000,SART,2,go,223,448,25,90,go,1,16ptc,space,1,954,954,3,Go Success,1,28,50,26,398,368,1.0,1,AABB
3.8.10,Windows,11122,11:34:48,998,000000,SART,2,go,224,449,25,90,go,1,19ptc,space,1,956,956,3,Go Success,1,28,50,26,399,369,1.0,1,AABB
3.8.10,Windows,11122,11:34:48,998,000000,SART,2,go,225,450,25,90,go,4,21ptc,space,1,955,955,3,Go Success,1,28,50,26,400,370,0.0,1,AABB
3.8.10,Windows,11122,11:34:48,998,000000,SART,3,go,1,451,25,90,go,1,16ptc,0,0,0,0,0,Omission,1,28,50,27,401,370,1.0,0,AABB
3.8.10,Windows,11122,11:34:48,998,000000,SART,3,go,2,452,25,90,go,1,21ptc,space,1,957,957,3,Go Success,1,28,50,27,402,371,1.0,0,AABB
3.8.10,Windows,11122,11:34:48,998,000000,SART,3,nogo,3,453,25,90,nogo,3,19ptc,space,0,955,955,3,NoGo Failure,1,28,51,27,402,371,1.0,0,AABB
3.8.10,Windows,11122,11:34:48,998,000000,SART,3,go,4,454,25,90,go,6,13ptc,0,0,0,0,0,Omission,1,28,51,28,403,371,1.0,0,AABB
3.8.10,Windows,11122,11:34:48,998,000000,SART,3,go,5,455,25,90,go,2,10ptc,space,1,957,957,3,Go Success,1,28,51,28,404,372,1.0,0,AABB
3.8.10,Windows,11122,11:34:48,998,000000,SART,3,go,6,456,25,90,go,7,19ptc,0,0,0,0,0,Omission,1,28,51,29,405,372,0.0,0,AABB
3.8.10,Windows,11122,11:34:48,998,000000,SART,3,go,7,457,25,90,go,6,13ptc,space,1,954,954,3,Go Success,1,28,51,29,406,373,0.0,0,AABB
3.8.10,Windows,11122,11:34:48,998,000000,SART,3,go,8,458,25,90,go,4,21ptc,space,1,956,956,3,Go Success,1,28,51,29,407,374,0.0,0,AABB
3.8.10,Windows,11122,11:34:48,998,000000,SART,3,go,9,459,25,90,go,9,10ptc,space,1,960,960,3,Go Success,1,28,51,29,408,375,0.0,0,AABB
3.8.10,Windows,11122,11:34:48,998,000000,SART,3,go,10,460,25,90,go,6,16ptc,space,1,957,957,3,Go Success,1,28,51,29,409,376,0.0,0,AABB
3.8.10,Windows,11122,11:34:48,998,000000,SART,3,go,11,461,25,90,go,4,16ptc,space,1,962,962,3,Go Success,1,28,51,29,410,377,0.0,0,AABB
3.8.10,Windows,11122,11:34:48,998,000000,SART,3,go,12,462,25,90,go,1,19ptc,space,1,956,956,3,Go Success,1,28,51,29,411,378,0.0,0,AABB
3.8.10,Windows,11122,11:34:48,998,000000,SART,3,go,13,463,25,90,go,8,10ptc,space,1,958,958,3,Go Success,1,28,51,29,412,379,0.0,0,AABB
3.8.10,Windows,11122,11:34:48,998,000000,SART,3,go,14,464,25,90,go,9,13ptc,space,1,960,960,3,Go Success,1,28,51,29,413,380,0.0,0,AABB
3.8.10,Windows,11122,11:34:48,998,000000,SART,3,go,15,465,25,90,go,7,21ptc,space,1,955,955,3,Go Success,1,28,51,29,414,381,0.0,0,AABB
3.8.10,Windows,11122,11:34:48,998,000000,SART,3,go,16,466,25,90,go,6,13ptc,space,1,221,221,3,Go Success,1,28,51,29,415,382,0.0,0,AABB
3.8.10,Windows,11122,11:34:48,998,000000,SART,3,go,17,467,25,90,go,6,19ptc,space,0,189,189,2,Go Ambiguous,1,28,51,29,416,382,0.0,0,AABB
3.8.10,Windows,11122,11:34:48,998,000000,SART,3,go,18,468,25,90,go,7,21ptc,space,1,229,229,3,Go Success,1,28,51,29,417,383,0.0,0,AABB
3.8.10,Windows,11122,11:34:48,998,000000,SART,3,go,19,469,25,90,go,7,10ptc,space,1,956,956,3,Go Success,1,28,51,29,418,384,0.0,0,AABB
3.8.10,Windows,11122,11:34:48,998,000000,SART,3,go,20,470,25,90,go,7,16ptc,space,1,960,960,3,Go Success,1,28,51,29,419,385,1.0,0,AABB
3.8.10,Windows,11122,11:34:48,998,000000,SART,3,go,21,471,25,90,go,8,19ptc,space,1,955,955,3,Go Success,1,28,51,29,420,386,1.0,0,AABB
3.8.10,Windows,11122,11:34:48,998,000000,SART,3,nogo,22,472,25,90,nogo,3,10ptc,space,0,955,955,3,NoGo Failure,1,28,52,29,420,386,1.0,0,AABB
3.8.10,Windows,11122,11:34:48,998,000000,SART,3,go,23,473,25,90,go,4,13ptc,space,1,955,955,3,Go Success,1,28,52,29,421,387,1.0,0,AABB
3.8.10,Windows,11122,11:34:48,998,000000,SART,3,nogo,24,474,25,90,nogo,3,16ptc,0,1,0,0,0,NoGo Success,1,29,53,29,421,387,1.0,0,AABB
3.8.10,Windows,11122,11:34:48,998,000000,SART,3,go,25,475,25,90,go,9,21ptc,space,1,956,956,3,Go Success,1,29,53,29,422,388,1.0,0,AABB
3.8.10,Windows,11122,11:34:48,998,000000,SART,3,go,26,476,25,90,go,2,16ptc,space,1,955,955,3,Go Success,1,29,53,29,423,389,1.0,0,AABB
3.8.10,Windows,11122,11:34:48,998,000000,SART,3,go,27,477,25,90,go,8,21ptc,space,1,954,954,3,Go Success,1,29,53,29,424,390,0.0,0,AABB
3.8.10,Windows,11122,11:34:48,998,000000,SART,3,go,28,478,25,90,go,1,19ptc,space,1,961,961,3,Go Success,1,29,53,29,425,391,0.0,0,AABB
3.8.10,Windows,11122,11:34:48,998,000000,SART,3,go,29,479,25,90,go,5,10ptc,space,1,958,958,3,Go Success,1,29,53,29,426,392,1.0,0,AABB
3.8.10,Windows,11122,11:34:48,998,000000,SART,3,go,30,480,25,90,go,7,13ptc,space,1,955,955,3,Go Success,1,29,53,29,427,393,1.0,0,AABB
3.8.10,Windows,11122,11:34:48,998,000000,SART,3,nogo,31,481,25,90,nogo,3,21ptc,space,0,955,955,3,NoGo Failure,1,29,54,29,427,393,1.0,0,AABB
3.8.10,Windows,11122,11:34:48,998,000000,SART,3,go,32,482,25,90,go,8,13ptc,space,1,956,956,3,Go Success,1,29,54,29,428,394,1.0,0,AABB
3.8.10,Windows,11122,11:34:48,998,000000,SART,3,go,33,483,25,90,go,2,16ptc,space,1,957,957,3,Go Success,1,29,54,29,429,395,1.0,0,AABB
3.8.10,Windows,11122,11:34:48,998,000000,SART,3,nogo,34,484,25,90,nogo,3,19ptc,space,0,956,956,3,NoGo Failure,1,29,55,29,429,395,1.0,0,AABB
3.8.10,Windows,11122,11:34:48,998,000000,SART,3,go,35,485,25,90,go,9,10ptc,space,1,955,955,3,Go Success,1,29,55,29,430,396,1.0,0,AABB
3.8.10,Windows,11122,11:34:48,998,000000,SART,3,go,36,486,25,90,go,7,16ptc,space,1,955,955,3,Go Success,1,29,55,29,431,397,1.0,0,AABB
3.8.10,Windows,11122,11:34:48,998,000000,SART,3,go,37,487,25,90,go,1,10ptc,space,1,956,956,3,Go Success,1,29,55,29,432,398,0.0,0,AABB
3.8.10,Windows,11122,11:34:48,998,000000,SART,3,go,38,488,25,90,go,7,19ptc,space,1,959,959,3,Go Success,1,29,55,29,433,399,0.0,0,AABB
3.8.10,Windows,11122,11:34:48,998,000000,SART,3,go,39,489,25,90,go,8,13ptc,space,1,958,958,3,Go Success,1,29,55,29,434,400,0.0,0,AABB
3.8.10,Windows,11122,11:34:48,998,000000,SART,3,go,40,490,25,90,go,6,21ptc,space,1,249,249,3,Go Success,1,29,55,29,435,401,0.0,0,AABB
3.8.10,Windows,11122,11:34:48,998,000000,SART,3,go,41,491,25,90,go,4,13ptc,space,1,242,242,3,Go Success,1,29,55,29,436,402,0.0,0,AABB
3.8.10,Windows,11122,11:34:48,998,000000,SART,3,go,42,492,25,90,go,1,16ptc,space,1,237,237,3,Go Success,1,29,55,29,437,403,0.0,0,AABB
3.8.10,Windows,11122,11:34:48,998,000000,SART,3,go,43,493,25,90,go,7,19ptc,space,1,956,956,3,Go Success,1,29,55,29,438,404,0.0,0,AABB
3.8.10,Windows,11122,11:34:48,998,000000,SART,3,go,44,494,25,90,go,5,10ptc,space,1,962,962,3,Go Success,1,29,55,29,439,405,0.0,0,AABB
3.8.10,Windows,11122,11:34:48,998,000000,SART,3,go,45,495,25,90,go,2,21ptc,space,1,957,957,3,Go Success,1,29,55,29,440,406,0.0,0,AABB
3.8.10,Windows,11122,11:34:48,998,000000,SART,3,go,46,496,25,90,go,8,16ptc,space,1,955,955,3,Go Success,1,29,55,29,441,407,0.0,0,AABB
3.8.10,Windows,11122,11:34:48,998,000000,SART,3,go,47,497,25,90,go,9,21ptc,space,1,218,218,3,Go Success,1,29,55,29,442,408,0.0,0,AABB
3.8.10,Windows,11122,11:34:48,998,000000,SART,3,go,48,498,25,90,go,1,19ptc,0,0,0,0,0,Omission,1,29,55,30,443,408,0.0,0,AABB
3.8.10,Windows,11122,11:34:48,998,000000,SART,3,go,49,499,25,90,go,5,10ptc,space,0,56,56,1,Go Anticipatory,2,29,55,30,444,408,0.0,0,AABB
3.8.10,Windows,11122,11:34:48,998,000000,SART,3,go,50,500,25,90,go,8,13ptc,space,0,57,57,1,Go Anticipatory,3,29,55,30,445,408,1.0,0,AABB
3.8.10,Windows,11122,11:34:48,998,000000,SART,3,go,51,501,25,90,go,8,21ptc,space,1,955,955,3,Go Success,3,29,55,30,446,409,1.0,0,AABB
3.8.10,Windows,11122,11:34:48,998,000000,SART,3,nogo,52,502,25,90,nogo,3,16ptc,space,0,955,955,3,NoGo Failure,3,29,56,30,446,409,1.0,0,AABB
3.8.10,Windows,11122,11:34:48,998,000000,SART,3,go,53,503,25,90,go,4,19ptc,space,1,955,955,3,Go Success,3,29,56,30,447,410,1.0,0,AABB
3.8.10,Windows,11122,11:34:48,998,000000,SART,3,go,54,504,25,90,go,2,13ptc,0,0,0,0,0,Omission,3,29,56,31,448,410,1.0,0,AABB
3.8.10,Windows,11122,11:34:48,998,000000,SART,3,go,55,505,25,90,go,5,10ptc,space,0,138,138,2,Go Ambiguous,3,29,56,31,449,410,1.0,0,AABB
3.8.10,Windows,11122,11:34:48,998,000000,SART,3,nogo,56,506,25,90,nogo,3,19ptc,space,0,955,955,3,NoGo Failure,3,29,57,31,449,410,1.0,0,AABB
3.8.10,Windows,11122,11:34:48,998,000000,SART,3,go,57,507,25,90,go,2,13ptc,space,1,955,955,3,Go Success,3,29,57,31,450,411,1.0,0,AABB
3.8.10,Windows,11122,11:34:48,998,000000,SART,3,go,58,508,25,90,go,8,21ptc,space,1,955,955,3,Go Success,3,29,57,31,451,412,1.0,0,AABB
3.8.10,Windows,11122,11:34:48,998,000000,SART,3,nogo,59,509,25,90,nogo,3,10ptc,space,0,955,955,3,NoGo Failure,3,29,58,31,451,412,1.0,0,AABB
3.8.10,Windows,11122,11:34:48,998,000000,SART,3,go,60,510,25,90,go,7,16ptc,space,1,955,955,3,Go Success,3,29,58,31,452,413,1.0,0,AABB
3.8.10,Windows,11122,11:34:48,998,000000,SART,3,nogo,61,511,25,90,nogo,3,13ptc,0,1,0,0,0,NoGo Success,3,30,59,31,452,413,1.0,0,AABB
3.8.10,Windows,11122,11:34:48,998,000000,SART,3,go,62,512,25,90,go,6,19ptc,space,1,956,956,3,Go Success,3,30,59,31,453,414,1.0,0,AABB
3.8.10,Windows,11122,11:34:48,998,000000,SART,3,go,63,513,25,90,go,4,16ptc,space,1,956,956,3,Go Success,3,30,59,31,454,415,1.0,0,AABB
3.8.10,Windows,11122,11:34:48,998,000000,SART,3,go,64,514,25,90,go,8,21ptc,space,1,956,956,3,Go Success,3,30,59,31,455,416,0.0,0,AABB
3.8.10,Windows,11122,11:34:48,998,000000,SART,3,go,65,515,25,90,go,6,10ptc,space,1,955,955,3,Go Success,3,30,59,31,456,417,0.0,0,AABB
3.8.10,Windows,11122,11:34:48,998,000000,SART,3,go,66,516,25,90,go,5,16ptc,space,1,959,959,3,Go Success,3,30,59,31,457,418,0.0,0,AABB
3.8.10,Windows,11122,11:34:48,998,000000,SART,3,go,67,517,25,90,go,9,13ptc,space,1,957,957,3,Go Success,3,30,59,31,458,419,1.0,0,AABB
3.8.10,Windows,11122,11:34:48,998,000000,SART,3,go,68,518,25,90,go,8,21ptc,space,1,251,251,3,Go Success,3,30,59,31,459,420,1.0,0,AABB
3.8.10,Windows,11122,11:34:48,998,000000,SART,3,nogo,69,519,25,90,nogo,3,10ptc,0,1,0,0,0,NoGo Success,3,31,60,31,459,420,1.0,0,AABB
3.8.10,Windows,11122,11:34:48,998,000000,SART,3,go,70,520,25,90,go,9,19ptc,space,1,954,954,3,Go Success,3,31,60,31,460,421,1.0,0,AABB
3.8.10,Windows,11122,11:34:48,998,000000,SART,3,nogo,71,521,25,90,nogo,3,13ptc,space,0,956,956,3,NoGo Failure,3,31,61,31,460,421,1.0,0,AABB
3.8.10,Windows,11122,11:34:48,998,000000,SART,3,go,72,522,25,90,go,9,10ptc,space,1,956,956,3,Go Success,3,31,61,31,461,422,1.0,0,AABB
3.8.10,Windows,11122,11:34:48,998,000000,SART,3,go,73,523,25,90,go,7,19ptc,space,1,955,955,3,Go Success,3,31,61,31,462,423,1.0,0,AABB
3.8.10,Windows,11122,11:34:48,998,000000,SART,3,go,74,524,25,90,go,6,16ptc,space,1,956,956,3,Go Success,3,31,61,31,463,424,0.0,0,AABB
3.8.10,Windows,11122,11:34:48,998,000000,SART,3,go,75,525,25,90,go,5,21ptc,space,1,955,955,3,Go Success,3,31,61,31,464,425,0.0,0,AABB
3.8.10,Windows,11122,11:34:48,998,000000,SART,3,go,76,526,25,90,go,8,13ptc,space,1,957,957,3,Go Success,3,31,61,31,465,426,0.0,0,AABB
3.8.10,Windows,11122,11:34:48,998,000000,SART,3,go,77,527,25,90,go,4,16ptc,0,0,0,0,0,Omission,3,31,61,32,466,426,0.0,0,AABB
3.8.10,Windows,11122,11:34:48,998,000000,SART,3,go,78,528,25,90,go,2,21ptc,space,0,53,53,1,Go Anticipatory,4,31,61,32,467,426,0.0,0,AABB
3.8.10,Windows,11122,11:34:48,998,000000,SART,3,go,79,529,25,90,go,9,19ptc,space,1,955,955,3,Go Success,4,31,61,32,468,427,0.0,0,AABB
3.8.10,Windows,11122,11:34:48,998,000000,SART,3,go,80,530,25,90,go,8,10ptc,space,1,955,955,3,Go Success,4,31,61,32,469,428,0.0,0,AABB
3.8.10,Windows,11122,11:34:48,998,000000,SART,3,go,81,531,25,90,go,2,13ptc,space,1,959,959,3,Go Success,4,31,61,32,470,429,1.0,0,AABB
3.8.10,Windows,11122,11:34:48,998,000000,SART,3,go,82,532,25,90,go,7,19ptc,space,1,954,954,3,Go Success,4,31,61,32,471,430,1.0,0,AABB
3.8.10,Windows,11122,11:34:48,998,000000,SART,3,nogo,83,533,25,90,nogo,3,16ptc,0,1,0,0,0,NoGo Success,4,32,62,32,471,430,1.0,0,AABB
3.8.10,Windows,11122,11:34:48,998,000000,SART,3,go,84,534,25,90,go,6,10ptc,0,0,0,0,0,Omission,4,32,62,33,472,430,1.0,0,AABB
3.8.10,Windows,11122,11:34:48,998,000000,SART,3,go,85,535,25,90,go,6,21ptc,space,1,955,955,3,Go Success,4,32,62,33,473,431,1.0,0,AABB
3.8.10,Windows,11122,11:34:48,998,000000,SART,3,go,86,536,25,90,go,4,19ptc,space,1,955,955,3,Go Success,4,32,62,33,474,432,0.0,0,AABB
3.8.10,Windows,11122,11:34:48,998,000000,SART,3,go,87,537,25,90,go,1,10ptc,space,1,956,956,3,Go Success,4,32,62,33,475,433,1.0,0,AABB
3.8.10,Windows,11122,11:34:48,998,000000,SART,3,go,88,538,25,90,go,9,13ptc,space,1,955,955,3,Go Success,4,32,62,33,476,434,1.0,0,AABB
3.8.10,Windows,11122,11:34:48,998,000000,SART,3,nogo,89,539,25,90,nogo,3,16ptc,0,1,0,0,0,NoGo Success,4,33,63,33,476,434,1.0,0,AABB
3.8.10,Windows,11122,11:34:48,998,000000,SART,3,go,90,540,25,90,go,6,21ptc,space,1,955,955,3,Go Success,4,33,63,33,477,435,1.0,0,AABB
3.8.10,Windows,11122,11:34:48,998,000000,SART,3,go,91,541,25,90,go,7,19ptc,space,1,956,956,3,Go Success,4,33,63,33,478,436,1.0,0,AABB
3.8.10,Windows,11122,11:34:48,998,000000,SART,3,go,92,542,25,90,go,7,16ptc,space,1,955,955,3,Go Success,4,33,63,33,479,437,0.0,0,AABB
3.8.10,Windows,11122,11:34:48,998,000000,SART,3,go,93,543,25,90,go,5,10ptc,space,1,247,247,3,Go Success,4,33,63,33,480,438,0.0,0,AABB
3.8.10,Windows,11122,11:34:48,998,000000,SART,3,go,94,544,25,90,go,1,21ptc,space,1,955,955,3,Go Success,4,33,63,33,481,439,0.0,0,AABB
3.8.10,Windows,11122,11:34:48,998,000000,SART,3,go,95,545,25,90,go,8,13ptc,space,1,958,958,3,Go Success,4,33,63,33,482,440,0.0,0,AABB
3.8.10,Windows,11122,11:34:48,998,000000,SART,3,go,96,546,25,90,go,4,13ptc,space,1,961,961,3,Go Success,4,33,63,33,483,441,0.0,0,AABB
3.8.10,Windows,11122,11:34:48,998,000000,SART,3,go,97,547,25,90,go,6,21ptc,space,1,956,956,3,Go Success,4,33,63,33,484,442,0.0,0,AABB
3.8.10,Windows,11122,11:34:48,998,000000,SART,3,go,98,548,25,90,go,7,10ptc,space,1,238,238,3,Go Success,4,33,63,33,485,443,0.0,0,AABB
3.8.10,Windows,11122,11:34:48,998,000000,SART,3,go,99,549,25,90,go,8,19ptc,space,1,955,955,3,Go Success,4,33,63,33,486,444,0.0,0,AABB
3.8.10,Windows,11122,11:34:48,998,000000,SART,3,go,100,550,25,90,go,2,16ptc,space,1,251,251,3,Go Success,4,33,63,33,487,445,0.0,0,AABB
3.8.10,Windows,11122,11:34:48,998,000000,SART,3,go,101,551,25,90,go,5,10ptc,space,1,956,956,3,Go Success,4,33,63,33,488,446,0.0,0,AABB
3.8.10,Windows,11122,11:34:48,998,000000,SART,3,go,102,552,25,90,go,6,13ptc,space,1,238,238,3,Go Success,4,33,63,33,489,447,0.0,0,AABB
3.8.10,Windows,11122,11:34:48,998,000000,SART,3,go,103,553,25,90,go,8,21ptc,space,1,244,244,3,Go Success,4,33,63,33,490,448,0.0,0,AABB
3.8.10,Windows,11122,11:34:48,998,000000,SART,3,go,104,554,25,90,go,5,16ptc,space,1,958,958,3,Go Success,4,33,63,33,491,449,0.0,0,AABB
3.8.10,Windows,11122,11:34:48,998,000000,SART,3,go,105,555,25,90,go,7,19ptc,space,1,238,238,3,Go Success,4,33,63,33,492,450,0.0,0,AABB
3.8.10,Windows,11122,11:34:48,998,000000,SART,3,go,106,556,25,90,go,5,16ptc,space,1,253,253,3,Go Success,4,33,63,33,493,451,0.0,0,AABB
3.8.10,Windows,11122,11:34:48,998,000000,SART,3,go,107,557,25,90,go,5,13ptc,space,1,200,200,3,Go Success,4,33,63,33,494,452,0.0,0,AABB
3.8.10,Windows,11122,11:34:48,998,000000,SART,3,go,108,558,25,90,go,2,10ptc,space,1,223,223,3,Go Success,4,33,63,33,495,453,1.0,0,AABB
3.8.10,Windows,11122,11:34:48,998,000000,SART,3,go,109,559,25,90,go,7,21ptc,space,1,956,956,3,Go Success,4,33,63,33,496,454,1.0,0,AABB
3.8.10,Windows,11122,11:34:48,998,000000,SART,3,nogo,110,560,25,90,nogo,3,19ptc,space,0,956,956,3,NoGo Failure,4,33,64,33,496,454,1.0,0,AABB
3.8.10,Windows,11122,11:34:48,998,000000,SART,3,go,111,561,25,90,go,6,21ptc,space,1,955,955,3,Go Success,4,33,64,33,497,455,1.0,0,AABB
3.8.10,Windows,11122,11:34:48,998,000000,SART,3,go,112,562,25,90,go,8,10ptc,space,0,128,128,2,Go Ambiguous,4,33,64,33,498,455,1.0,0,AABB
3.8.10,Windows,11122,11:34:48,998,000000,SART,3,go,113,563,25,90,go,1,16ptc,space,1,236,236,3,Go Success,4,33,64,33,499,456,0.0,0,AABB
3.8.10,Windows,11122,11:34:48,998,000000,SART,3,go,114,564,25,90,go,7,13ptc,space,1,956,956,3,Go Success,4,33,64,33,500,457,0.0,0,AABB
3.8.10,Windows,11122,11:34:48,998,000000,SART,3,go,115,565,25,90,go,5,19ptc,space,1,956,956,3,Go Success,4,33,64,33,501,458,0.0,0,AABB
3.8.10,Windows,11122,11:34:48,998,000000,SART,3,go,116,566,25,90,go,9,13ptc,space,1,253,253,3,Go Success,4,33,64,33,502,459,0.0,0,AABB
3.8.10,Windows,11122,11:34:48,998,000000,SART,3,go,117,567,25,90,go,9,16ptc,space,1,242,242,3,Go Success,4,33,64,33,503,460,0.0,0,AABB
3.8.10,Windows,11122,11:34:48,998,000000,SART,3,go,118,568,25,90,go,2,10ptc,space,0,187,187,2,Go Ambiguous,4,33,64,33,504,460,0.0,0,AABB
3.8.10,Windows,11122,11:34:48,998,000000,SART,3,go,119,569,25,90,go,6,21ptc,space,1,956,956,3,Go Success,4,33,64,33,505,461,0.0,0,AABB
3.8.10,Windows,11122,11:34:48,998,000000,SART,3,go,120,570,25,90,go,4,19ptc,space,1,955,955,3,Go Success,4,33,64,33,506,462,0.0,0,AABB
3.8.10,Windows,11122,11:34:48,998,000000,SART,3,go,121,571,25,90,go,2,19ptc,space,1,955,955,3,Go Success,4,33,64,33,507,463,0.0,0,AABB
3.8.10,Windows,11122,11:34:48,998,000000,SART,3,go,122,572,25,90,go,2,10ptc,space,1,958,958,3,Go Success,4,33,64,33,508,464,0.0,0,AABB
3.8.10,Windows,11122,11:34:48,998,000000,SART,3,go,123,573,25,90,go,2,16ptc,space,1,956,956,3,Go Success,4,33,64,33,509,465,0.0,0,AABB
3.8.10,Windows,11122,11:34:48,998,000000,SART,3,go,124,574,25,90,go,4,13ptc,space,1,960,960,3,Go Success,4,33,64,33,510,466,0.0,0,AABB
3.8.10,Windows,11122,11:34:48,998,000000,SART,3,go,125,575,25,90,go,9,21ptc,space,1,955,955,3,Go Success,4,33,64,33,511,467,0.0,0,AABB
3.8.10,Windows,11122,11:34:48,998,000000,SART,3,go,126,576,25,90,go,2,13ptc,space,1,961,961,3,Go Success,4,33,64,33,512,468,0.0,0,AABB
3.8.10,Windows,11122,11:34:48,998,000000,SART,3,go,127,577,25,90,go,5,16ptc,space,1,955,955,3,Go Success,4,33,64,33,513,469,0.0,0,AABB
3.8.10,Windows,11122,11:34:48,998,000000,SART,3,go,128,578,25,90,go,5,19ptc,space,1,955,955,3,Go Success,4,33,64,33,514,470,0.0,0,AABB
3.8.10,Windows,11122,11:34:48,998,000000,SART,3,go,129,579,25,90,go,2,10ptc,space,1,955,955,3,Go Success,4,33,64,33,515,471,0.0,0,AABB
3.8.10,Windows,11122,11:34:48,998,000000,SART,3,go,130,580,25,90,go,2,21ptc,space,1,956,956,3,Go Success,4,33,64,33,516,472,0.0,0,AABB
3.8.10,Windows,11122,11:34:48,998,000000,SART,3,go,131,581,25,90,go,9,19ptc,space,1,956,956,3,Go Success,4,33,64,33,517,473,0.0,0,AABB
3.8.10,Windows,11122,11:34:48,998,000000,SART,3,go,132,582,25,90,go,4,21ptc,space,1,959,959,3,Go Success,4,33,64,33,518,474,1.0,0,AABB
3.8.10,Windows,11122,11:34:48,998,000000,SART,3,go,133,583,25,90,go,8,10ptc,space,1,956,956,3,Go Success,4,33,64,33,519,475,1.0,0,AABB
3.8.10,Windows,11122,11:34:48,998,000000,SART,3,nogo,134,584,25,90,nogo,3,13ptc,0,1,0,0,0,NoGo Success,4,34,65,33,519,475,1.0,0,AABB
3.8.10,Windows,11122,11:34:48,998,000000,SART,3,go,135,585,25,90,go,8,16ptc,space,1,956,956,3,Go Success,4,34,65,33,520,476,1.0,0,AABB
3.8.10,Windows,11122,11:34:48,998,000000,SART,3,go,136,586,25,90,go,5,16ptc,space,1,956,956,3,Go Success,4,34,65,33,521,477,1.0,0,AABB
3.8.10,Windows,11122,11:34:48,998,000000,SART,3,nogo,137,587,25,90,nogo,3,21ptc,space,0,956,956,3,NoGo Failure,4,34,66,33,521,477,1.0,0,AABB
3.8.10,Windows,11122,11:34:48,998,000000,SART,3,go,138,588,25,90,go,6,19ptc,space,1,955,955,3,Go Success,4,34,66,33,522,478,1.0,0,AABB
3.8.10,Windows,11122,11:34:48,998,000000,SART,3,go,139,589,25,90,go,2,13ptc,space,1,958,958,3,Go Success,4,34,66,33,523,479,1.0,0,AABB
3.8.10,Windows,11122,11:34:48,998,000000,SART,3,go,140,590,25,90,go,5,10ptc,space,1,956,956,3,Go Success,4,34,66,33,524,480,0.0,0,AABB
3.8.10,Windows,11122,11:34:48,998,000000,SART,3,go,141,591,25,90,go,8,21ptc,space,1,955,955,3,Go Success,4,34,66,33,525,481,0.0,0,AABB
3.8.10,Windows,11122,11:34:48,998,000000,SART,3,go,142,592,25,90,go,2,10ptc,space,1,955,955,3,Go Success,4,34,66,33,526,482,0.0,0,AABB
3.8.10,Windows,11122,11:34:48,998,000000,SART,3,go,143,593,25,90,go,5,13ptc,space,1,961,961,3,Go Success,4,34,66,33,527,483,0.0,0,AABB
3.8.10,Windows,11122,11:34:48,998,000000,SART,3,go,144,594,25,90,go,1,19ptc,space,1,958,958,3,Go Success,4,34,66,33,528,484,0.0,0,AABB
3.8.10,Windows,11122,11:34:48,998,000000,SART,3,go,145,595,25,90,go,5,16ptc,space,1,957,957,3,Go Success,4,34,66,33,529,485,0.0,0,AABB
3.8.10,Windows,11122,11:34:48,998,000000,SART,3,go,146,596,25,90,go,5,21ptc,space,1,956,956,3,Go Success,4,34,66,33,530,486,0.0,0,AABB
3.8.10,Windows,11122,11:34:48,998,000000,SART,3,go,147,597,25,90,go,1,10ptc,space,1,959,959,3,Go Success,4,34,66,33,531,487,0.0,0,AABB
3.8.10,Windows,11122,11:34:48,998,000000,SART,3,go,148,598,25,90,go,7,16ptc,space,1,955,955,3,Go Success,4,34,66,33,532,488,0.0,0,AABB
3.8.10,Windows,11122,11:34:48,998,000000,SART,3,go,149,599,25,90,go,7,13ptc,space,1,959,959,3,Go Success,4,34,66,33,533,489,0.0,0,AABB
3.8.10,Windows,11122,11:34:48,998,000000,SART,3,go,150,600,25,90,go,6,19ptc,space,1,957,957,3,Go Success,4,34,66,33,534,490,0.0,0,AABB
3.8.10,Windows,11122,11:34:48,998,000000,SART,3,go,151,601,25,90,go,5,10ptc,space,1,959,959,3,Go Success,4,34,66,33,535,491,1.0,0,AABB
3.8.10,Windows,11122,11:34:48,998,000000,SART,3,go,152,602,25,90,go,1,13ptc,space,1,955,955,3,Go Success,4,34,66,33,536,492,1.0,0,AABB
3.8.10,Windows,11122,11:34:48,998,000000,SART,3,nogo,153,603,25,90,nogo,3,16ptc,space,0,956,956,3,NoGo Failure,4,34,67,33,536,492,1.0,0,AABB
3.8.10,Windows,11122,11:34:48,998,000000,SART,3,go,154,604,25,90,go,9,21ptc,space,1,956,956,3,Go Success,4,34,67,33,537,493,1.0,0,AABB
3.8.10,Windows,11122,11:34:48,998,000000,SART,3,go,155,605,25,90,go,9,19ptc,space,1,955,955,3,Go Success,4,34,67,33,538,494,1.0,0,AABB
3.8.10,Windows,11122,11:34:48,998,000000,SART,3,go,156,606,25,90,go,1,16ptc,space,1,955,955,3,Go Success,4,34,67,33,539,495,0.0,0,AABB
3.8.10,Windows,11122,11:34:48,998,000000,SART,3,go,157,607,25,90,go,1,19ptc,space,1,954,954,3,Go Success,4,34,67,33,540,496,1.0,0,AABB
3.8.10,Windows,11122,11:34:48,998,000000,SART,3,go,158,608,25,90,go,4,21ptc,space,1,957,957,3,Go Success,4,34,67,33,541,497,1.0,0,AABB
3.8.10,Windows,11122,11:34:48,998,000000,SART,3,nogo,159,609,25,90,nogo,3,10ptc,space,0,955,955,3,NoGo Failure,4,34,68,33,541,497,1.0,0,AABB
3.8.10,Windows,11122,11:34:48,998,000000,SART,3,go,160,610,25,90,go,9,13ptc,space,1,955,955,3,Go Success,4,34,68,33,542,498,1.0,0,AABB
3.8.10,Windows,11122,11:34:48,998,000000,SART,3,go,161,611,25,90,go,4,21ptc,space,1,955,955,3,Go Success,4,34,68,33,543,499,1.0,0,AABB
3.8.10,Windows,11122,11:34:48,998,000000,SART,3,go,162,612,25,90,go,9,13ptc,space,1,956,956,3,Go Success,4,34,68,33,544,500,0.0,0,AABB
3.8.10,Windows,11122,11:34:48,998,000000,SART,3,go,163,613,25,90,go,4,10ptc,space,1,956,956,3,Go Success,4,34,68,33,545,501,0.0,0,AABB
3.8.10,Windows,11122,11:34:48,998,000000,SART,3,go,164,614,25,90,go,9,16ptc,space,1,956,956,3,Go Success,4,34,68,33,546,502,0.0,0,AABB
3.8.10,Windows,11122,11:34:48,998,000000,SART,3,go,165,615,25,90,go,1,19ptc,space,1,957,957,3,Go Success,4,34,68,33,547,503,0.0,0,AABB
3.8.10,Windows,11122,11:34:48,998,000000,SART,3,go,166,616,25,90,go,4,21ptc,space,1,955,955,3,Go Success,4,34,68,33,548,504,0.0,0,AABB
3.8.10,Windows,11122,11:34:48,998,000000,SART,3,go,167,617,25,90,go,2,16ptc,space,1,960,960,3,Go Success,4,34,68,33,549,505,1.0,0,AABB
3.8.10,Windows,11122,11:34:48,998,000000,SART,3,go,168,618,25,90,go,7,19ptc,space,1,956,956,3,Go Success,4,34,68,33,550,506,1.0,0,AABB
3.8.10,Windows,11122,11:34:48,998,000000,SART,3,nogo,169,619,25,90,nogo,3,13ptc,0,1,0,0,0,NoGo Success,4,35,69,33,550,506,1.0,0,AABB
3.8.10,Windows,11122,11:34:48,998,000000,SART,3,go,170,620,25,90,go,4,10ptc,space,1,247,247,3,Go Success,4,35,69,33,551,507,1.0,0,AABB
3.8.10,Windows,11122,11:34:48,998,000000,SART,3,go,171,621,25,90,go,5,13ptc,space,1,959,959,3,Go Success,4,35,69,33,552,508,1.0,0,AABB
3.8.10,Windows,11122,11:34:48,998,000000,SART,3,go,172,622,25,90,go,8,16ptc,space,1,957,957,3,Go Success,4,35,69,33,553,509,1.0,0,AABB
3.8.10,Windows,11122,11:34:48,998,000000,SART,3,nogo,173,623,25,90,nogo,3,10ptc,0,1,0,0,0,NoGo Success,4,36,70,33,553,509,1.0,0,AABB
3.8.10,Windows,11122,11:34:48,998,000000,SART,3,go,174,624,25,90,go,8,21ptc,space,1,231,231,3,Go Success,4,36,70,33,554,510,1.0,0,AABB
3.8.10,Windows,11122,11:34:48,998,000000,SART,3,go,175,625,25,90,go,2,19ptc,space,1,956,956,3,Go Success,4,36,70,33,555,511,1.0,0,AABB
3.8.10,Windows,11122,11:34:48,998,000000,SART,3,go,176,626,25,90,go,7,16ptc,space,1,956,956,3,Go Success,4,36,70,33,556,512,0.0,0,AABB
3.8.10,Windows,11122,11:34:48,998,000000,SART,3,go,177,627,25,90,go,6,13ptc,space,1,956,956,3,Go Success,4,36,70,33,557,513,0.0,0,AABB
3.8.10,Windows,11122,11:34:48,998,000000,SART,3,go,178,628,25,90,go,1,10ptc,space,1,956,956,3,Go Success,4,36,70,33,558,514,0.0,0,AABB
3.8.10,Windows,11122,11:34:48,998,000000,SART,3,go,179,629,25,90,go,9,21ptc,space,1,955,955,3,Go Success,4,36,70,33,559,515,0.0,0,AABB
3.8.10,Windows,11122,11:34:48,998,000000,SART,3,go,180,630,25,90,go,5,19ptc,space,1,957,957,3,Go Success,4,36,70,33,560,516,0.0,0,AABB
3.8.10,Windows,11122,11:34:48,998,000000,SART,3,go,181,631,25,90,go,4,13ptc,space,1,958,958,3,Go Success,4,36,70,33,561,517,0.0,0,AABB
3.8.10,Windows,11122,11:34:48,998,000000,SART,3,go,182,632,25,90,go,6,19ptc,space,1,959,959,3,Go Success,4,36,70,33,562,518,0.0,0,AABB
3.8.10,Windows,11122,11:34:48,998,000000,SART,3,go,183,633,25,90,go,6,10ptc,space,1,961,961,3,Go Success,4,36,70,33,563,519,0.0,0,AABB
3.8.10,Windows,11122,11:34:48,998,000000,SART,3,go,184,634,25,90,go,2,21ptc,space,1,229,229,3,Go Success,4,36,70,33,564,520,0.0,0,AABB
3.8.10,Windows,11122,11:34:48,998,000000,SART,3,go,185,635,25,90,go,4,16ptc,space,1,235,235,3,Go Success,4,36,70,33,565,521,0.0,0,AABB
3.8.10,Windows,11122,11:34:48,998,000000,SART,3,go,186,636,25,90,go,1,19ptc,space,1,959,959,3,Go Success,4,36,70,33,566,522,1.0,0,AABB
3.8.10,Windows,11122,11:34:48,998,000000,SART,3,go,187,637,25,90,go,4,21ptc,space,1,238,238,3,Go Success,4,36,70,33,567,523,1.0,0,AABB
3.8.10,Windows,11122,11:34:48,998,000000,SART,3,nogo,188,638,25,90,nogo,3,10ptc,0,1,0,0,0,NoGo Success,4,37,71,33,567,523,1.0,0,AABB
3.8.10,Windows,11122,11:34:48,998,000000,SART,3,go,189,639,25,90,go,1,16ptc,space,1,231,231,3,Go Success,4,37,71,33,568,524,1.0,0,AABB
3.8.10,Windows,11122,11:34:48,998,000000,SART,3,go,190,640,25,90,go,1,13ptc,space,1,955,955,3,Go Success,4,37,71,33,569,525,1.0,0,AABB
3.8.10,Windows,11122,11:34:48,998,000000,SART,3,go,191,641,25,90,go,9,21ptc,space,1,956,956,3,Go Success,4,37,71,33,570,526,0.0,0,AABB
3.8.10,Windows,11122,11:34:48,998,000000,SART,3,go,192,642,25,90,go,8,10ptc,space,1,241,241,3,Go Success,4,37,71,33,571,527,1.0,0,AABB
3.8.10,Windows,11122,11:34:48,998,000000,SART,3,go,193,643,25,90,go,2,13ptc,space,1,956,956,3,Go Success,4,37,71,33,572,528,1.0,0,AABB
3.8.10,Windows,11122,11:34:48,998,000000,SART,3,nogo,194,644,25,90,nogo,3,19ptc,space,0,240,240,3,NoGo Failure,4,37,72,33,572,528,1.0,0,AABB
3.8.10,Windows,11122,11:34:48,998,000000,SART,3,go,195,645,25,90,go,4,16ptc,space,1,239,239,3,Go Success,4,37,72,33,573,529,1.0,0,AABB
3.8.10,Windows,11122,11:34:48,998,000000,SART,3,go,196,646,25,90,go,6,16ptc,space,1,961,961,3,Go Success,4,37,72,33,574,530,1.0,0,AABB
3.8.10,Windows,11122,11:34:48,998,000000,SART,3,go,197,647,25,90,go,6,10ptc,space,1,249,249,3,Go Success,4,37,72,33,575,531,0.0,0,AABB
3.8.10,Windows,11122,11:34:48,998,000000,SART,3,go,198,648,25,90,go,5,19ptc,space,1,241,241,3,Go Success,4,37,72,33,576,532,0.0,0,AABB
3.8.10,Windows,11122,11:34:48,998,000000,SART,3,go,199,649,25,90,go,5,13ptc,space,1,957,957,3,Go Success,4,37,72,33,577,533,0.0,0,AABB
3.8.10,Windows,11122,11:34:48,998,000000,SART,3,go,200,650,25,90,go,8,21ptc,space,1,956,956,3,Go Success,4,37,72,33,578,534,0.0,0,AABB
3.8.10,Windows,11122,11:34:48,998,000000,SART,3,go,201,651,25,90,go,9,19ptc,space,1,252,252,3,Go Success,4,37,72,33,579,535,0.0,0,AABB
3.8.10,Windows,11122,11:34:48,998,000000,SART,3,go,202,652,25,90,go,8,16ptc,space,1,958,958,3,Go Success,4,37,72,33,580,536,0.0,0,AABB
3.8.10,Windows,11122,11:34:48,998,000000,SART,3,go,203,653,25,90,go,4,13ptc,space,1,959,959,3,Go Success,4,37,72,33,581,537,0.0,0,AABB
3.8.10,Windows,11122,11:34:48,998,000000,SART,3,go,204,654,25,90,go,1,10ptc,space,1,959,959,3,Go Success,4,37,72,33,582,538,0.0,0,AABB
3.8.10,Windows,11122,11:34:48,998,000000,SART,3,go,205,655,25,90,go,9,21ptc,space,1,955,955,3,Go Success,4,37,72,33,583,539,0.0,0,AABB
3.8.10,Windows,11122,11:34:48,998,000000,SART,3,go,206,656,25,90,go,1,16ptc,space,1,961,961,3,Go Success,4,37,72,33,584,540,0.0,0,AABB
3.8.10,Windows,11122,11:34:48,998,000000,SART,3,go,207,657,25,90,go,2,21ptc,space,1,957,957,3,Go Success,4,37,72,33,585,541,0.0,0,AABB
3.8.10,Windows,11122,11:34:48,998,000000,SART,3,go,208,658,25,90,go,2,19ptc,space,1,960,960,3,Go Success,4,37,72,33,586,542,0.0,0,AABB
3.8.10,Windows,11122,11:34:48,998,000000,SART,3,go,209,659,25,90,go,1,13ptc,space,1,957,957,3,Go Success,4,37,72,33,587,543,0.0,0,AABB
3.8.10,Windows,11122,11:34:48,998,000000,SART,3,go,210,660,25,90,go,4,10ptc,space,1,960,960,3,Go Success,4,37,72,33,588,544,0.0,0,AABB
3.8.10,Windows,11122,11:34:48,998,000000,SART,3,go,211,661,25,90,go,7,10ptc,space,1,956,956,3,Go Success,4,37,72,33,589,545,1.0,0,AABB
3.8.10,Windows,11122,11:34:48,998,000000,SART,3,go,212,662,25,90,go,1,16ptc,space,1,956,956,3,Go Success,4,37,72,33,590,546,1.0,0,AABB
3.8.10,Windows,11122,11:34:48,998,000000,SART,3,nogo,213,663,25,90,nogo,3,21ptc,space,0,216,216,3,NoGo Failure,4,37,73,33,590,546,1.0,0,AABB
3.8.10,Windows,11122,11:34:48,998,000000,SART,3,go,214,664,25,90,go,9,19ptc,space,1,956,956,3,Go Success,4,37,73,33,591,547,1.0,0,AABB
3.8.10,Windows,11122,11:34:48,998,000000,SART,3,go,215,665,25,90,go,9,13ptc,space,1,956,956,3,Go Success,4,37,73,33,592,548,1.0,0,AABB
3.8.10,Windows,11122,11:34:48,998,000000,SART,3,go,216,666,25,90,go,1,21ptc,space,1,956,956,3,Go Success,4,37,73,33,593,549,0.0,0,AABB
3.8.10,Windows,11122,11:34:48,998,000000,SART,3,go,217,667,25,90,go,6,10ptc,space,1,965,965,3,Go Success,4,37,73,33,594,550,1.0,0,AABB
3.8.10,Windows,11122,11:34:48,998,000000,SART,3,go,218,668,25,90,go,5,19ptc,space,1,955,955,3,Go Success,4,37,73,33,595,551,1.0,0,AABB
3.8.10,Windows,11122,11:34:48,998,000000,SART,3,nogo,219,669,25,90,nogo,3,13ptc,space,0,956,956,3,NoGo Failure,4,37,74,33,595,551,1.0,0,AABB
3.8.10,Windows,11122,11:34:48,998,000000,SART,3,go,220,670,25,90,go,7,16ptc,space,1,956,956,3,Go Success,4,37,74,33,596,552,1.0,0,AABB
3.8.10,Windows,11122,11:34:48,998,000000,SART,3,go,221,671,25,90,go,7,13ptc,space,1,955,955,3,Go Success,4,37,74,33,597,553,1.0,0,AABB
3.8.10,Windows,11122,11:34:48,998,000000,SART,3,go,222,672,25,90,go,6,10ptc,space,1,955,955,3,Go Success,4,37,74,33,598,554,1.0,0,AABB
3.8.10,Windows,11122,11:34:48,998,000000,SART,3,go,223,673,25,90,go,4,16ptc,space,1,956,956,3,Go Success,4,37,74,33,599,555,1.0,0,AABB
3.8.10,Windows,11122,11:34:48,998,000000,SART,3,nogo,224,674,25,90,nogo,3,21ptc,space,0,956,956,3,NoGo Failure,4,37,75,33,599,555,1.0,0,AABB
3.8.10,Windows,11122,11:34:48,998,000000,SART,3,go,225,675,25,90,go,4,19ptc,space,1,954,954,3,Go Success,4,37,75,33,600,556,1.0,0,AABB
3.8.10,Windows,11122,11:34:48,998,000000,SART,4,nogo,1,676,25,90,nogo,3,13ptc,0,1,0,0,0,NoGo Success,4,38,76,33,600,556,0.0,0,AABB
3.8.10,Windows,11122,11:34:48,998,000000,SART,4,go,2,677,25,90,go,8,10ptc,space,1,957,957,3,Go Success,4,38,76,33,601,557,0.0,0,AABB
3.8.10,Windows,11122,11:34:48,998,000000,SART,4,go,3,678,25,90,go,1,21ptc,space,1,957,957,3,Go Success,4,38,76,33,602,558,1.0,0,AABB
3.8.10,Windows,11122,11:34:48,998,000000,SART,4,go,4,679,25,90,go,7,16ptc,space,1,955,955,3,Go Success,4,38,76,33,603,559,1.0,0,AABB
3.8.10,Windows,11122,11:34:48,998,000000,SART,4,nogo,5,680,25,90,nogo,3,19ptc,0,1,0,0,0,NoGo Success,4,39,77,33,603,559,1.0,0,AABB
3.8.10,Windows,11122,11:34:48,998,000000,SART,4,go,6,681,25,90,go,4,16ptc,space,1,955,955,3,Go Success,4,39,77,33,604,560,1.0,0,AABB
3.8.10,Windows,11122,11:34:48,998,000000,SART,4,go,7,682,25,90,go,6,13ptc,space,1,955,955,3,Go Success,4,39,77,33,605,561,1.0,0,AABB
3.8.10,Windows,11122,11:34:48,998,000000,SART,4,go,8,683,25,90,go,2,21ptc,space,1,957,957,3,Go Success,4,39,77,33,606,562,0.0,0,AABB
3.8.10,Windows,11122,11:34:48,998,000000,SART,4,go,9,684,25,90,go,5,19ptc,space,1,956,956,3,Go Success,4,39,77,33,607,563,0.0,0,AABB
3.8.10,Windows,11122,11:34:48,998,000000,SART,4,go,10,685,25,90,go,8,10ptc,space,1,956,956,3,Go Success,4,39,77,33,608,564,0.0,0,AABB
3.8.10,Windows,11122,11:34:48,998,000000,SART,4,go,11,686,25,90,go,1,13ptc,space,1,245,245,3,Go Success,4,39,77,33,609,565,0.0,0,AABB
3.8.10,Windows,11122,11:34:48,998,000000,SART,4,go,12,687,25,90,go,6,16ptc,space,1,959,959,3,Go Success,4,39,77,33,610,566,0.0,0,AABB
3.8.10,Windows,11122,11:34:48,998,000000,SART,4,go,13,688,25,90,go,9,21ptc,space,1,956,956,3,Go Success,4,39,77,33,611,567,0.0,0,AABB
3.8.10,Windows,11122,11:34:48,998,000000,SART,4,go,14,689,25,90,go,9,19ptc,space,1,959,959,3,Go Success,4,39,77,33,612,568,0.0,0,AABB
3.8.10,Windows,11122,11:34:48,998,000000,SART,4,go,15,690,25,90,go,1,10ptc,space,1,960,960,3,Go Success,4,39,77,33,613,569,0.0,0,AABB
3.8.10,Windows,11122,11:34:48,998,000000,SART,4,go,16,691,25,90,go,8,10ptc,space,1,240,240,3,Go Success,4,39,77,33,614,570,0.0,0,AABB
3.8.10,Windows,11122,11:34:48,998,000000,SART,4,go,17,692,25,90,go,2,19ptc,space,1,205,205,3,Go Success,4,39,77,33,615,571,0.0,0,AABB
3.8.10,Windows,11122,11:34:48,998,000000,SART,4,go,18,693,25,90,go,2,13ptc,space,0,194,194,2,Go Ambiguous,4,39,77,33,616,571,0.0,0,AABB
3.8.10,Windows,11122,11:34:48,998,000000,SART,4,go,19,694,25,90,go,4,21ptc,space,1,242,242,3,Go Success,4,39,77,33,617,572,0.0,0,AABB
3.8.10,Windows,11122,11:34:48,998,000000,SART,4,go,20,695,25,90,go,4,16ptc,space,1,958,958,3,Go Success,4,39,77,33,618,573,0.0,0,AABB
3.8.10,Windows,11122,11:34:48,998,000000,SART,4,go,21,696,25,90,go,5,21ptc,space,1,957,957,3,Go Success,4,39,77,33,619,574,0.0,0,AABB
3.8.10,Windows,11122,11:34:48,998,000000,SART,4,go,22,697,25,90,go,5,13ptc,space,1,957,957,3,Go Success,4,39,77,33,620,575,0.0,0,AABB
3.8.10,Windows,11122,11:34:48,998,000000,SART,4,go,23,698,25,90,go,5,16ptc,space,1,961,961,3,Go Success,4,39,77,33,621,576,0.0,0,AABB
3.8.10,Windows,11122,11:34:48,998,000000,SART,4,go,24,699,25,90,go,6,19ptc,space,1,956,956,3,Go Success,4,39,77,33,622,577,0.0,0,AABB
3.8.10,Windows,11122,11:34:48,998,000000,SART,4,go,25,700,25,90,go,6,10ptc,space,1,960,960,3,Go Success,4,39,77,33,623,578,1.0,0,AABB
3.8.10,Windows,11122,11:34:48,998,000000,SART,4,go,26,701,25,90,go,2,16ptc,space,1,957,957,3,Go Success,4,39,77,33,624,579,1.0,0,AABB
3.8.10,Windows,11122,11:34:48,998,000000,SART,4,nogo,27,702,25,90,nogo,3,19ptc,space,0,245,245,3,NoGo Failure,4,39,78,33,624,579,1.0,0,AABB
3.8.10,Windows,11122,11:34:48,998,000000,SART,4,go,28,703,25,90,go,4,13ptc,space,1,251,251,3,Go Success,4,39,78,33,625,580,1.0,0,AABB
3.8.10,Windows,11122,11:34:48,998,000000,SART,4,go,29,704,25,90,go,6,10ptc,space,1,222,222,3,Go Success,4,39,78,33,626,581,1.0,0,AABB
3.8.10,Windows,11122,11:34:48,998,000000,SART,4,go,30,705,25,90,go,5,21ptc,space,1,956,956,3,Go Success,4,39,78,33,627,582,0.0,0,AABB
3.8.10,Windows,11122,11:34:48,998,000000,SART,4,go,31,706,25,90,go,5,21ptc,space,1,244,244,3,Go Success,4,39,78,33,628,583,0.0,0,AABB
3.8.10,Windows,11122,11:34:48,998,000000,SART,4,go,32,707,25,90,go,5,16ptc,space,1,954,954,3,Go Success,4,39,78,33,629,584,0.0,0,AABB
3.8.10,Windows,11122,11:34:48,998,000000,SART,4,go,33,708,25,90,go,4,10ptc,space,1,959,959,3,Go Success,4,39,78,33,630,585,0.0,0,AABB
3.8.10,Windows,11122,11:34:48,998,000000,SART,4,go,34,709,25,90,go,5,19ptc,space,1,956,956,3,Go Success,4,39,78,33,631,586,0.0,0,AABB
3.8.10,Windows,11122,11:34:48,998,000000,SART,4,go,35,710,25,90,go,6,13ptc,space,1,961,961,3,Go Success,4,39,78,33,632,587,0.0,0,AABB
3.8.10,Windows,11122,11:34:48,998,000000,SART,4,go,36,711,25,90,go,5,13ptc,space,1,960,960,3,Go Success,4,39,78,33,633,588,0.0,0,AABB
3.8.10,Windows,11122,11:34:48,998,000000,SART,4,go,37,712,25,90,go,7,19ptc,space,1,961,961,3,Go Success,4,39,78,33,634,589,0.0,0,AABB
3.8.10,Windows,11122,11:34:48,998,000000,SART,4,go,38,713,25,90,go,4,16ptc,space,1,958,958,3,Go Success,4,39,78,33,635,590,0.0,0,AABB
3.8.10,Windows,11122,11:34:48,998,000000,SART,4,go,39,714,25,90,go,2,10ptc,space,1,958,958,3,Go Success,4,39,78,33,636,591,0.0,0,AABB
3.8.10,Windows,11122,11:34:48,998,000000,SART,4,go,40,715,25,90,go,5,21ptc,space,1,957,957,3,Go Success,4,39,78,33,637,592,0.0,0,AABB
3.8.10,Windows,11122,11:34:48,998,000000,SART,4,go,41,716,25,90,go,7,21ptc,space,1,961,961,3,Go Success,4,39,78,33,638,593,1.0,0,AABB
3.8.10,Windows,11122,11:34:48,998,000000,SART,4,go,42,717,25,90,go,2,19ptc,space,1,955,955,3,Go Success,4,39,78,33,639,594,1.0,0,AABB
3.8.10,Windows,11122,11:34:48,998,000000,SART,4,nogo,43,718,25,90,nogo,3,16ptc,space,0,955,955,3,NoGo Failure,4,39,79,33,639,594,1.0,0,AABB
3.8.10,Windows,11122,11:34:48,998,000000,SART,4,go,44,719,25,90,go,1,13ptc,space,1,202,202,3,Go Success,4,39,79,33,640,595,1.0,0,AABB
3.8.10,Windows,11122,11:34:48,998,000000,SART,4,go,45,720,25,90,go,4,10ptc,space,1,957,957,3,Go Success,4,39,79,33,641,596,1.0,0,AABB
3.8.10,Windows,11122,11:34:48,998,000000,SART,4,go,46,721,25,90,go,4,10ptc,space,1,955,955,3,Go Success,4,39,79,33,642,597,0.0,0,AABB
3.8.10,Windows,11122,11:34:48,998,000000,SART,4,go,47,722,25,90,go,2,16ptc,space,1,956,956,3,Go Success,4,39,79,33,643,598,1.0,0,AABB
3.8.10,Windows,11122,11:34:48,998,000000,SART,4,go,48,723,25,90,go,7,21ptc,space,1,955,955,3,Go Success,4,39,79,33,644,599,1.0,0,AABB
3.8.10,Windows,11122,11:34:48,998,000000,SART,4,nogo,49,724,25,90,nogo,3,13ptc,space,0,954,954,3,NoGo Failure,4,39,80,33,644,599,1.0,0,AABB
3.8.10,Windows,11122,11:34:48,998,000000,SART,4,go,50,725,25,90,go,8,19ptc,space,1,954,954,3,Go Success,4,39,80,33,645,600,1.0,0,AABB
3.8.10,Windows,11122,11:34:48,998,000000,SART,4,go,51,726,25,90,go,5,19ptc,space,1,237,237,3,Go Success,4,39,80,33,646,601,1.0,0,AABB
3.8.10,Windows,11122,11:34:48,998,000000,SART,4,go,52,727,25,90,go,2,21ptc,space,1,225,225,3,Go Success,4,39,80,33,647,602,1.0,0,AABB
3.8.10,Windows,11122,11:34:48,998,000000,SART,4,go,53,728,25,90,go,9,10ptc,space,1,956,956,3,Go Success,4,39,80,33,648,603,1.0,0,AABB
3.8.10,Windows,11122,11:34:48,998,000000,SART,4,nogo,54,729,25,90,nogo,3,16ptc,0,1,0,0,0,NoGo Success,4,40,81,33,648,603,1.0,0,AABB
3.8.10,Windows,11122,11:34:48,998,000000,SART,4,go,55,730,25,90,go,4,13ptc,space,1,236,236,3,Go Success,4,40,81,33,649,604,1.0,0,AABB
3.8.10,Windows,11122,11:34:48,998,000000,SART,4,go,56,731,25,90,go,1,10ptc,space,1,955,955,3,Go Success,4,40,81,33,650,605,1.0,0,AABB
3.8.10,Windows,11122,11:34:48,998,000000,SART,4,go,57,732,25,90,go,8,16ptc,space,1,955,955,3,Go Success,4,40,81,33,651,606,0.0,0,AABB
3.8.10,Windows,11122,11:34:48,998,000000,SART,4,go,58,733,25,90,go,8,13ptc,space,1,965,965,3,Go Success,4,40,81,33,652,607,0.0,0,AABB
3.8.10,Windows,11122,11:34:48,998,000000,SART,4,go,59,734,25,90,go,7,19ptc,space,1,955,955,3,Go Success,4,40,81,33,653,608,0.0,0,AABB
3.8.10,Windows,11122,11:34:48,998,000000,SART,4,go,60,735,25,90,go,5,21ptc,space,1,213,213,3,Go Success,4,40,81,33,654,609,0.0,0,AABB
3.8.10,Windows,11122,11:34:48,998,000000,SART,4,go,61,736,25,90,go,7,10ptc,space,1,960,960,3,Go Success,4,40,81,33,655,610,0.0,0,AABB
3.8.10,Windows,11122,11:34:48,998,000000,SART,4,go,62,737,25,90,go,4,21ptc,space,1,239,239,3,Go Success,4,40,81,33,656,611,0.0,0,AABB
3.8.10,Windows,11122,11:34:48,998,000000,SART,4,go,63,738,25,90,go,7,16ptc,space,1,255,255,3,Go Success,4,40,81,33,657,612,0.0,0,AABB
3.8.10,Windows,11122,11:34:48,998,000000,SART,4,go,64,739,25,90,go,1,13ptc,space,1,959,959,3,Go Success,4,40,81,33,658,613,0.0,0,AABB
3.8.10,Windows,11122,11:34:48,998,000000,SART,4,go,65,740,25,90,go,2,19ptc,space,1,956,956,3,Go Success,4,40,81,33,659,614,0.0,0,AABB
3.8.10,Windows,11122,11:34:48,998,000000,SART,4,go,66,741,25,90,go,6,19ptc,space,1,961,961,3,Go Success,4,40,81,33,660,615,0.0,0,AABB
3.8.10,Windows,11122,11:34:48,998,000000,SART,4,go,67,742,25,90,go,7,10ptc,space,1,958,958,3,Go Success,4,40,81,33,661,616,1.0,0,AABB
