build,computer.platform,date,time,subject,group,blockcode,blocknum,trialcode,trialnum,expressions.trialcount,parameters.digitpresentationtime,parameters.maskpresentationtime,values.trialtype,values.digit,values.fontsize,response,correct,values.RT,latency,values.latencytype,values.responsetype,values.count_anticipatory,values.correctsuppressions,values.count_NoGo,values.incorrectsuppressions,values.count_Go,values.count_validGo,values.dostim,values.amp,values.order
3.8.10,Windows,11122,15:28:3,999998,testrun,SART,1,go,1,1,25,90,go,1,19ptc,space,1,957,957,3,Go Success,0,0,0,0,1,1,0.0,1,AABB
3.8.10,Windows,11122,15:28:3,999998,testrun,SART,1,go,2,2,25,90,go,4,16ptc,space,1,956,956,3,Go Success,0,0,0,0,2,2,0.0,1,AABB
3.8.10,Windows,11122,15:28:3,999998,testrun,SART,1,go,3,3,25,90,go,8,13ptc,space,1,958,958,3,Go Success,0,0,0,0,3,3,0.0,1,AABB
3.8.10,Windows,11122,15:28:3,999998,testrun,SART,1,go,4,4,25,90,go,2,21ptc,space,0,171,171,2,Go Ambiguous,0,0,0,0,4,3,0.0,1,AABB
3.8.10,Windows,11122,15:28:3,999998,testrun,SART,1,go,5,5,25,90,go,4,10ptc,space,1,956,956,3,Go Success,0,0,0,0,5,4,0.0,1,AABB
3.8.10,Windows,11122,15:28:3,999998,testrun,SART,1,go,6,6,25,90,go,6,10ptc,space,0,183,183,2,Go Ambiguous,0,0,0,0,6,4,0.0,1,AABB
3.8.10,Windows,11122,15:28:3,999998,testrun,SART,1,go,7,7,25,90,go,7,16ptc,space,0,180,180,2,Go Ambiguous,0,0,0,0,7,4,0.0,1,AABB
3.8.10,Windows,11122,15:28:3,999998,testrun,SART,1,go,8,8,25,90,go,8,13ptc,0,0,0,0,0,Omission,0,0,0,1,8,4,0.0,1,AABB
3.8.10,Windows,11122,15:28:3,999998,testrun,SART,1,go,9,9,25,90,go,4,21ptc,space,0,79,79,1,Go Anticipatory,1,0,0,1,9,4,0.0,1,AABB
3.8.10,Windows,11122,15:28:3,999998,testrun,SART,1,go,10,10,25,90,go,7,19ptc,space,1,956,956,3,Go Success,1,0,0,1,10,5,0.0,1,AABB
3.8.10,Windows,11122,15:28:3,999998,testrun,SART,1,go,11,11,25,90,go,6,21ptc,space,1,955,955,3,Go Success,1,0,0,1,11,6,0.0,1,AABB
3.8.10,Windows,11122,15:28:3,999998,testrun,SART,1,go,12,12,25,90,go,7,19ptc,space,1,957,957,3,Go Success,1,0,0,1,12,7,0.0,1,AABB
3.8.10,Windows,11122,15:28:3,999998,testrun,SART,1,go,13,13,25,90,go,4,16ptc,space,1,956,956,3,Go Success,1,0,0,1,13,8,0.0,1,AABB
3.8.10,Windows,11122,15:28:3,999998,testrun,SART,1,go,14,14,25,90,go,6,10ptc,0,0,0,0,0,Omission,1,0,0,2,14,8,1.0,1,AABB
3.8.10,Windows,11122,15:28:3,999998,testrun,SART,1,go,15,15,25,90,go,1,13ptc,0,0,0,0,0,Omission,1,0,0,3,15,8,1.0,1,AABB
3.8.10,Windows,11122,15:28:3,999998,testrun,SART,1,go,16,16,25,90,go,7,21ptc,space,0,54,54,1,Go Anticipatory,2,0,0,3,16,8,1.0,1,AABB
3.8.10,Windows,11122,15:28:3,999998,testrun,SART,1,nogo,17,17,25,90,nogo,3,16ptc,space,0,956,956,3,NoGo Failure,2,0,1,3,16,8,1.0,1,AABB
3.8.10,Windows,11122,15:28:3,999998,testrun,SART,1,go,18,18,25,90,go,1,10ptc,space,1,956,956,3,Go Success,2,0,1,3,17,9,1.0,1,AABB
3.8.10,Windows,11122,15:28:3,999998,testrun,SART,1,go,19,19,25,90,go,6,19ptc,space,1,955,955,3,Go Success,2,0,1,3,18,10,1.0,1,AABB
3.8.10,Windows,11122,15:28:3,999998,testrun,SART,1,go,20,20,25,90,go,5,13ptc,space,1,955,955,3,Go Success,2,0,1,3,19,11,1.0,1,AABB
3.8.10,Windows,11122,15:28:3,999998,testrun,SART,1,go,21,21,25,90,go,1,13ptc,0,0,0,0,0,Omission,2,0,1,4,20,11,1.0,1,AABB
3.8.10,Windows,11122,15:28:3,999998,testrun,SART,1,go,22,22,25,90,go,7,10ptc,space,1,954,954,3,Go Success,2,0,1,4,21,12,1.0,1,AABB
3.8.10,Windows,11122,15:28:3,999998,testrun,SART,1,nogo,23,23,25,90,nogo,3,16ptc,space,0,956,956,3,NoGo Failure,2,0,2,4,21,12,1.0,1,AABB
3.8.10,Windows,11122,15:28:3,999998,testrun,SART,1,nogo,24,24,25,90,nogo,3,19ptc,space,0,955,955,3,NoGo Failure,2,0,3,4,21,12,1.0,1,AABB
3.8.10,Windows,11122,15:28:3,999998,testrun,SART,1,go,25,25,25,90,go,9,21ptc,space,1,957,957,3,Go Success,2,0,3,4,22,13,1.0,1,AABB
3.8.10,Windows,11122,15:28:3,999998,testrun,SART,1,go,26,26,25,90,go,6,13ptc,space,1,957,957,3,Go Success,2,0,3,4,23,14,1.0,1,AABB
3.8.10,Windows,11122,15:28:3,999998,testrun,SART,1,go,27,27,25,90,go,5,16ptc,space,1,955,955,3,Go Success,2,0,3,4,24,15,1.0,1,AABB
3.8.10,Windows,11122,15:28:3,999998,testrun,SART,1,go,28,28,25,90,go,2,21ptc,space,1,956,956,3,Go Success,2,0,3,4,25,16,0.0,1,AABB
3.8.10,Windows,11122,15:28:3,999998,testrun,SART,1,go,29,29,25,90,go,9,19ptc,space,1,955,955,3,Go Success,2,0,3,4,26,17,0.0,1,AABB
3.8.10,Windows,11122,15:28:3,999998,testrun,SART,1,go,30,30,25,90,go,4,10ptc,space,1,956,956,3,Go Success,2,0,3,4,27,18,1.0,1,AABB
3.8.10,Windows,11122,15:28:3,999998,testrun,SART,1,go,31,31,25,90,go,4,21ptc,space,1,954,954,3,Go Success,2,0,3,4,28,19,1.0,1,AABB
3.8.10,Windows,11122,15:28:3,999998,testrun,SART,1,go,32,32,25,90,go,8,10ptc,space,1,955,955,3,Go Success,2,0,3,4,29,20,1.0,1,AABB
3.8.10,Windows,11122,15:28:3,999998,testrun,SART,1,nogo,33,33,25,90,nogo,3,13ptc,0,1,0,0,0,NoGo Success,2,1,4,4,29,20,1.0,1,AABB
3.8.10,Windows,11122,15:28:3,999998,testrun,SART,1,go,34,34,25,90,go,9,16ptc,space,1,955,955,3,Go Success,2,1,4,4,30,21,1.0,1,AABB
3.8.10,Windows,11122,15:28:3,999998,testrun,SART,1,go,35,35,25,90,go,5,19ptc,space,1,956,956,3,Go Success,2,1,4,4,31,22,1.0,1,AABB
3.8.10,Windows,11122,15:28:3,999998,testrun,SART,1,go,36,36,25,90,go,9,16ptc,space,1,956,956,3,Go Success,2,1,4,4,32,23,1.0,1,AABB
3.8.10,Windows,11122,15:28:3,999998,testrun,SART,1,nogo,37,37,25,90,nogo,3,10ptc,space,0,956,956,3,NoGo Failure,2,1,5,4,32,23,1.0,1,AABB
3.8.10,Windows,11122,15:28:3,999998,testrun,SART,1,go,38,38,25,90,go,6,19ptc,space,1,956,956,3,Go Success,2,1,5,4,33,24,1.0,1,AABB
3.8.10,Windows,11122,15:28:3,999998,testrun,SART,1,go,39,39,25,90,go,4,21ptc,space,1,957,957,3,Go Success,2,1,5,4,34,25,1.0,1,AABB
3.8.10,Windows,11122,15:28:3,999998,testrun,SART,1,go,40,40,25,90,go,6,13ptc,0,0,0,0,0,Omission,2,1,5,5,35,25,1.0,1,AABB
3.8.10,Windows,11122,15:28:3,999998,testrun,SART,1,go,41,41,25,90,go,9,19ptc,0,0,0,0,0,Omission,2,1,5,6,36,25,0.0,1,AABB
3.8.10,Windows,11122,15:28:3,999998,testrun,SART,1,go,42,42,25,90,go,5,16ptc,0,0,0,0,0,Omission,2,1,5,7,37,25,0.0,1,AABB
3.8.10,Windows,11122,15:28:3,999998,testrun,SART,1,go,43,43,25,90,go,1,10ptc,space,1,955,955,3,Go Success,2,1,5,7,38,26,0.0,1,AABB
3.8.10,Windows,11122,15:28:3,999998,testrun,SART,1,go,44,44,25,90,go,1,13ptc,space,1,956,956,3,Go Success,2,1,5,7,39,27,0.0,1,AABB
3.8.10,Windows,11122,15:28:3,999998,testrun,SART,1,go,45,45,25,90,go,1,21ptc,space,1,956,956,3,Go Success,2,1,5,7,40,28,1.0,1,AABB
3.8.10,Windows,11122,15:28:3,999998,testrun,SART,1,go,46,46,25,90,go,2,21ptc,space,1,955,955,3,Go Success,2,1,5,7,41,29,1.0,1,AABB
3.8.10,Windows,11122,15:28:3,999998,testrun,SART,1,go,47,47,25,90,go,8,16ptc,0,0,0,0,0,Omission,2,1,5,8,42,29,1.0,1,AABB
3.8.10,Windows,11122,15:28:3,999998,testrun,SART,1,nogo,48,48,25,90,nogo,3,10ptc,0,1,0,0,0,NoGo Success,2,2,6,8,42,29,1.0,1,AABB
3.8.10,Windows,11122,15:28:3,999998,testrun,SART,1,go,49,49,25,90,go,5,13ptc,0,0,0,0,0,Omission,2,2,6,9,43,29,1.0,1,AABB
3.8.10,Windows,11122,15:28:3,999998,testrun,SART,1,go,50,50,25,90,go,2,19ptc,0,0,0,0,0,Omission,2,2,6,10,44,29,1.0,1,AABB
3.8.10,Windows,11122,15:28:3,999998,testrun,SART,1,go,51,51,25,90,go,7,13ptc,0,0,0,0,0,Omission,2,2,6,11,45,29,1.0,1,AABB
3.8.10,Windows,11122,15:28:3,999998,testrun,SART,1,go,52,52,25,90,go,2,16ptc,0,0,0,0,0,Omission,2,2,6,12,46,29,0.0,1,AABB
3.8.10,Windows,11122,15:28:3,999998,testrun,SART,1,go,53,53,25,90,go,9,10ptc,0,0,0,0,0,Omission,2,2,6,13,47,29,0.0,1,AABB
3.8.10,Windows,11122,15:28:3,999998,testrun,SART,1,go,54,54,25,90,go,7,19ptc,0,0,0,0,0,Omission,2,2,6,14,48,29,1.0,1,AABB
3.8.10,Windows,11122,15:28:3,999998,testrun,SART,1,go,55,55,25,90,go,7,21ptc,0,0,0,0,0,Omission,2,2,6,15,49,29,1.0,1,AABB
3.8.10,Windows,11122,15:28:3,999998,testrun,SART,1,go,56,56,25,90,go,9,19ptc,0,0,0,0,0,Omission,2,2,6,16,50,29,1.0,1,AABB
3.8.10,Windows,11122,15:28:3,999998,testrun,SART,1,nogo,57,57,25,90,nogo,3,13ptc,0,1,0,0,0,NoGo Success,2,3,7,16,50,29,1.0,1,AABB
3.8.10,Windows,11122,15:28:3,999998,testrun,SART,1,go,58,58,25,90,go,9,10ptc,0,0,0,0,0,Omission,2,3,7,17,51,29,1.0,1,AABB
3.8.10,Windows,11122,15:28:3,999998,testrun,SART,1,nogo,59,59,25,90,nogo,3,21ptc,0,1,0,0,0,NoGo Success,2,4,8,17,51,29,1.0,1,AABB
3.8.10,Windows,11122,15:28:3,999998,testrun,SART,1,go,60,60,25,90,go,2,16ptc,0,0,0,0,0,Omission,2,4,8,18,52,29,1.0,1,AABB
3.8.10,Windows,11122,15:28:3,999998,testrun,SART,1,go,61,61,25,90,go,4,13ptc,0,0,0,0,0,Omission,2,4,8,19,53,29,1.0,1,AABB
3.8.10,Windows,11122,15:28:3,999998,testrun,SART,1,go,62,62,25,90,go,9,19ptc,0,0,0,0,0,Omission,2,4,8,20,54,29,1.0,1,AABB
3.8.10,Windows,11122,15:28:3,999998,testrun,SART,1,go,63,63,25,90,go,9,16ptc,0,0,0,0,0,Omission,2,4,8,21,55,29,0.0,1,AABB
3.8.10,Windows,11122,15:28:3,999998,testrun,SART,1,go,64,64,25,90,go,2,21ptc,0,0,0,0,0,Omission,2,4,8,22,56,29,0.0,1,AABB
3.8.10,Windows,11122,15:28:3,999998,testrun,SART,1,go,65,65,25,90,go,5,10ptc,0,0,0,0,0,Omission,2,4,8,23,57,29,0.0,1,AABB
3.8.10,Windows,11122,15:28:3,999998,testrun,SART,1,go,66,66,25,90,go,8,13ptc,0,0,0,0,0,Omission,2,4,8,24,58,29,0.0,1,AABB
3.8.10,Windows,11122,15:28:3,999998,testrun,SART,1,go,67,67,25,90,go,6,21ptc,0,0,0,0,0,Omission,2,4,8,25,59,29,0.0,1,AABB
3.8.10,Windows,11122,15:28:3,999998,testrun,SART,1,go,68,68,25,90,go,6,16ptc,0,0,0,0,0,Omission,2,4,8,26,60,29,0.0,1,AABB
3.8.10,Windows,11122,15:28:3,999998,testrun,SART,1,go,69,69,25,90,go,7,19ptc,0,0,0,0,0,Omission,2,4,8,27,61,29,0.0,1,AABB
3.8.10,Windows,11122,15:28:3,999998,testrun,SART,1,go,70,70,25,90,go,9,10ptc,0,0,0,0,0,Omission,2,4,8,28,62,29,0.0,1,AABB
3.8.10,Windows,11122,15:28:3,999998,testrun,SART,1,go,71,71,25,90,go,2,10ptc,0,0,0,0,0,Omission,2,4,8,29,63,29,0.0,1,AABB
3.8.10,Windows,11122,15:28:3,999998,testrun,SART,1,go,72,72,25,90,go,1,19ptc,0,0,0,0,0,Omission,2,4,8,30,64,29,0.0,1,AABB
3.8.10,Windows,11122,15:28:3,999998,testrun,SART,1,go,73,73,25,90,go,7,16ptc,0,0,0,0,0,Omission,2,4,8,31,65,29,0.0,1,AABB
3.8.10,Windows,11122,15:28:3,999998,testrun,SART,1,go,74,74,25,90,go,7,21ptc,0,0,0,0,0,Omission,2,4,8,32,66,29,0.0,1,AABB
3.8.10,Windows,11122,15:28:3,999998,testrun,SART,1,go,75,75,25,90,go,6,13ptc,0,0,0,0,0,Omission,2,4,8,33,67,29,0.0,1,AABB
3.8.10,Windows,11122,15:28:3,999998,testrun,SART,1,go,76,76,25,90,go,5,10ptc,0,0,0,0,0,Omission,2,4,8,34,68,29,0.0,1,AABB
3.8.10,Windows,11122,15:28:3,999998,testrun,SART,1,go,77,77,25,90,go,2,21ptc,0,0,0,0,0,Omission,2,4,8,35,69,29,0.0,1,AABB
3.8.10,Windows,11122,15:28:3,999998,testrun,SART,1,go,78,78,25,90,go,4,16ptc,0,0,0,0,0,Omission,2,4,8,36,70,29,0.0,1,AABB
3.8.10,Windows,11122,15:28:3,999998,testrun,SART,1,go,79,79,25,90,go,7,19ptc,0,0,0,0,0,Omission,2,4,8,37,71,29,0.0,1,AABB
3.8.10,Windows,11122,15:28:3,999998,testrun,SART,1,go,80,80,25,90,go,9,13ptc,0,0,0,0,0,Omission,2,4,8,38,72,29,0.0,1,AABB
3.8.10,Windows,11122,15:28:3,999998,testrun,SART,1,go,81,81,25,90,go,4,10ptc,0,0,0,0,0,Omission,2,4,8,39,73,29,1.0,1,AABB
3.8.10,Windows,11122,15:28:3,999998,testrun,SART,1,go,82,82,25,90,go,7,19ptc,0,0,0,0,0,Omission,2,4,8,40,74,29,1.0,1,AABB
3.8.10,Windows,11122,15:28:3,999998,testrun,SART,1,go,83,83,25,90,go,8,21ptc,0,0,0,0,0,Omission,2,4,8,41,75,29,1.0,1,AABB
3.8.10,Windows,11122,15:28:3,999998,testrun,SART,1,nogo,84,84,25,90,nogo,3,16ptc,0,1,0,0,0,NoGo Success,2,5,9,41,75,29,1.0,1,AABB
3.8.10,Windows,11122,15:28:3,999998,testrun,SART,1,go,85,85,25,90,go,9,13ptc,0,0,0,0,0,Omission,2,5,9,42,76,29,1.0,1,AABB
3.8.10,Windows,11122,15:28:3,999998,testrun,SART,1,go,86,86,25,90,go,5,19ptc,0,0,0,0,0,Omission,2,5,9,43,77,29,1.0,1,AABB
3.8.10,Windows,11122,15:28:3,999998,testrun,SART,1,go,87,87,25,90,go,4,13ptc,0,0,0,0,0,Omission,2,5,9,44,78,29,1.0,1,AABB
3.8.10,Windows,11122,15:28:3,999998,testrun,SART,1,go,88,88,25,90,go,1,10ptc,0,0,0,0,0,Omission,2,5,9,45,79,29,0.0,1,AABB
3.8.10,Windows,11122,15:28:3,999998,testrun,SART,1,go,89,89,25,90,go,8,16ptc,0,0,0,0,0,Omission,2,5,9,46,80,29,0.0,1,AABB
3.8.10,Windows,11122,15:28:3,999998,testrun,SART,1,go,90,90,25,90,go,1,21ptc,0,0,0,0,0,Omission,2,5,9,47,81,29,0.0,1,AABB
3.8.10,Windows,11122,15:28:3,999998,testrun,SART,1,go,91,91,25,90,go,8,10ptc,0,0,0,0,0,Omission,2,5,9,48,82,29,1.0,1,AABB
3.8.10,Windows,11122,15:28:3,999998,testrun,SART,1,go,92,92,25,90,go,8,21ptc,0,0,0,0,0,Omission,2,5,9,49,83,29,1.0,1,AABB
3.8.10,Windows,11122,15:28:3,999998,testrun,SART,1,go,93,93,25,90,go,5,16ptc,0,0,0,0,0,Omission,2,5,9,50,84,29,1.0,1,AABB
3.8.10,Windows,11122,15:28:3,999998,testrun,SART,1,nogo,94,94,25,90,nogo,3,19ptc,0,1,0,0,0,NoGo Success,2,6,10,50,84,29,1.0,1,AABB
3.8.10,Windows,11122,15:28:3,999998,testrun,SART,1,go,95,95,25,90,go,7,13ptc,0,0,0,0,0,Omission,2,6,10,51,85,29,1.0,1,AABB
3.8.10,Windows,11122,15:28:3,999998,testrun,SART,1,nogo,96,96,25,90,nogo,3,21ptc,0,1,0,0,0,NoGo Success,2,7,11,51,85,29,1.0,1,AABB
3.8.10,Windows,11122,15:28:3,999998,testrun,SART,1,go,97,97,25,90,go,9,19ptc,0,0,0,0,0,Omission,2,7,11,52,86,29,1.0,1,AABB
3.8.10,Windows,11122,15:28:3,999998,testrun,SART,1,go,98,98,25,90,go,2,16ptc,0,0,0,0,0,Omission,2,7,11,53,87,29,1.0,1,AABB
3.8.10,Windows,11122,15:28:3,999998,testrun,SART,1,go,99,99,25,90,go,2,13ptc,0,0,0,0,0,Omission,2,7,11,54,88,29,1.0,1,AABB
3.8.10,Windows,11122,15:28:3,999998,testrun,SART,1,go,100,100,25,90,go,2,10ptc,0,0,0,0,0,Omission,2,7,11,55,89,29,0.0,1,AABB
3.8.10,Windows,11122,15:28:3,999998,testrun,SART,1,go,101,101,25,90,go,5,19ptc,0,0,0,0,0,Omission,2,7,11,56,90,29,0.0,1,AABB
3.8.10,Windows,11122,15:28:3,999998,testrun,SART,1,go,102,102,25,90,go,7,21ptc,0,0,0,0,0,Omission,2,7,11,57,91,29,0.0,1,AABB
3.8.10,Windows,11122,15:28:3,999998,testrun,SART,1,go,103,103,25,90,go,6,16ptc,0,0,0,0,0,Omission,2,7,11,58,92,29,0.0,1,AABB
3.8.10,Windows,11122,15:28:3,999998,testrun,SART,1,go,104,104,25,90,go,1,13ptc,0,0,0,0,0,Omission,2,7,11,59,93,29,0.0,1,AABB
3.8.10,Windows,11122,15:28:3,999998,testrun,SART,1,go,105,105,25,90,go,2,10ptc,0,0,0,0,0,Omission,2,7,11,60,94,29,0.0,1,AABB
3.8.10,Windows,11122,15:28:3,999998,testrun,SART,1,go,106,106,25,90,go,9,10ptc,0,0,0,0,0,Omission,2,7,11,61,95,29,0.0,1,AABB
3.8.10,Windows,11122,15:28:3,999998,testrun,SART,1,go,107,107,25,90,go,8,16ptc,0,0,0,0,0,Omission,2,7,11,62,96,29,0.0,1,AABB
3.8.10,Windows,11122,15:28:3,999998,testrun,SART,1,go,108,108,25,90,go,8,13ptc,0,0,0,0,0,Omission,2,7,11,63,97,29,0.0,1,AABB
3.8.10,Windows,11122,15:28:3,999998,testrun,SART,1,go,109,109,25,90,go,8,21ptc,0,0,0,0,0,Omission,2,7,11,64,98,29,0.0,1,AABB
3.8.10,Windows,11122,15:28:3,999998,testrun,SART,1,go,110,110,25,90,go,4,19ptc,0,0,0,0,0,Omission,2,7,11,65,99,29,0.0,1,AABB
3.8.10,Windows,11122,15:28:3,999998,testrun,SART,1,go,111,111,25,90,go,2,19ptc,0,0,0,0,0,Omission,2,7,11,66,100,29,0.0,1,AABB
3.8.10,Windows,11122,15:28:3,999998,testrun,SART,1,go,112,112,25,90,go,1,10ptc,0,0,0,0,0,Omission,2,7,11,67,101,29,0.0,1,AABB
3.8.10,Windows,11122,15:28:3,999998,testrun,SART,1,go,113,113,25,90,go,4,21ptc,0,0,0,0,0,Omission,2,7,11,68,102,29,0.0,1,AABB
3.8.10,Windows,11122,15:28:3,999998,testrun,SART,1,go,114,114,25,90,go,5,16ptc,0,0,0,0,0,Omission,2,7,11,69,103,29,1.0,1,AABB
3.8.10,Windows,11122,15:28:3,999998,testrun,SART,1,go,115,115,25,90,go,1,13ptc,0,0,0,0,0,Omission,2,7,11,70,104,29,1.0,1,AABB
3.8.10,Windows,11122,15:28:3,999998,testrun,SART,1,go,116,116,25,90,go,9,16ptc,0,0,0,0,0,Omission,2,7,11,71,105,29,1.0,1,AABB
3.8.10,Windows,11122,15:28:3,999998,testrun,SART,1,nogo,117,117,25,90,nogo,3,19ptc,0,1,0,0,0,NoGo Success,2,8,12,71,105,29,1.0,1,AABB
3.8.10,Windows,11122,15:28:3,999998,testrun,SART,1,go,118,118,25,90,go,6,21ptc,0,0,0,0,0,Omission,2,8,12,72,106,29,1.0,1,AABB
3.8.10,Windows,11122,15:28:3,999998,testrun,SART,1,go,119,119,25,90,go,5,13ptc,0,0,0,0,0,Omission,2,8,12,73,107,29,1.0,1,AABB
3.8.10,Windows,11122,15:28:3,999998,testrun,SART,1,go,120,120,25,90,go,7,10ptc,0,0,0,0,0,Omission,2,8,12,74,108,29,1.0,1,AABB
3.8.10,Windows,11122,15:28:3,999998,testrun,SART,1,go,121,121,25,90,go,8,16ptc,0,0,0,0,0,Omission,2,8,12,75,109,29,0.0,1,AABB
3.8.10,Windows,11122,15:28:3,999998,testrun,SART,1,go,122,122,25,90,go,2,19ptc,0,0,0,0,0,Omission,2,8,12,76,110,29,0.0,1,AABB
3.8.10,Windows,11122,15:28:3,999998,testrun,SART,1,go,123,123,25,90,go,1,21ptc,0,0,0,0,0,Omission,2,8,12,77,111,29,0.0,1,AABB
3.8.10,Windows,11122,15:28:3,999998,testrun,SART,1,go,124,124,25,90,go,8,13ptc,0,0,0,0,0,Omission,2,8,12,78,112,29,0.0,1,AABB
3.8.10,Windows,11122,15:28:3,999998,testrun,SART,1,go,125,125,25,90,go,2,10ptc,0,0,0,0,0,Omission,2,8,12,79,113,29,0.0,1,AABB
3.8.10,Windows,11122,15:28:3,999998,testrun,SART,1,go,126,126,25,90,go,5,19ptc,0,0,0,0,0,Omission,2,8,12,80,114,29,0.0,1,AABB
3.8.10,Windows,11122,15:28:3,999998,testrun,SART,1,go,127,127,25,90,go,1,13ptc,0,0,0,0,0,Omission,2,8,12,81,115,29,0.0,1,AABB
3.8.10,Windows,11122,15:28:3,999998,testrun,SART,1,go,128,128,25,90,go,4,16ptc,0,0,0,0,0,Omission,2,8,12,82,116,29,0.0,1,AABB
3.8.10,Windows,11122,15:28:3,999998,testrun,SART,1,go,129,129,25,90,go,2,21ptc,0,0,0,0,0,Omission,2,8,12,83,117,29,0.0,1,AABB
3.8.10,Windows,11122,15:28:3,999998,testrun,SART,1,go,130,130,25,90,go,6,10ptc,0,0,0,0,0,Omission,2,8,12,84,118,29,0.0,1,AABB
3.8.10,Windows,11122,15:28:3,999998,testrun,SART,1,go,131,131,25,90,go,4,21ptc,0,0,0,0,0,Omission,2,8,12,85,119,29,0.0,1,AABB
3.8.10,Windows,11122,15:28:3,999998,testrun,SART,1,go,132,132,25,90,go,7,19ptc,0,0,0,0,0,Omission,2,8,12,86,120,29,0.0,1,AABB
3.8.10,Windows,11122,15:28:3,999998,testrun,SART,1,go,133,133,25,90,go,9,10ptc,0,0,0,0,0,Omission,2,8,12,87,121,29,0.0,1,AABB
3.8.10,Windows,11122,15:28:3,999998,testrun,SART,1,go,134,134,25,90,go,6,16ptc,0,0,0,0,0,Omission,2,8,12,88,122,29,0.0,1,AABB
3.8.10,Windows,11122,15:28:3,999998,testrun,SART,1,go,135,135,25,90,go,8,13ptc,0,0,0,0,0,Omission,2,8,12,89,123,29,0.0,1,AABB
3.8.10,Windows,11122,15:28:3,999998,testrun,SART,1,go,136,136,25,90,go,8,10ptc,0,0,0,0,0,Omission,2,8,12,90,124,29,0.0,1,AABB
3.8.10,Windows,11122,15:28:3,999998,testrun,SART,1,go,137,137,25,90,go,6,13ptc,0,0,0,0,0,Omission,2,8,12,91,125,29,0.0,1,AABB
3.8.10,Windows,11122,15:28:3,999998,testrun,SART,1,go,138,138,25,90,go,9,21ptc,0,0,0,0,0,Omission,2,8,12,92,126,29,0.0,1,AABB
3.8.10,Windows,11122,15:28:3,999998,testrun,SART,1,go,139,139,25,90,go,6,16ptc,0,0,0,0,0,Omission,2,8,12,93,127,29,1.0,1,AABB
3.8.10,Windows,11122,15:28:3,999998,testrun,SART,1,go,140,140,25,90,go,4,19ptc,0,0,0,0,0,Omission,2,8,12,94,128,29,1.0,1,AABB
3.8.10,Windows,11122,15:28:3,999998,testrun,SART,1,go,141,141,25,90,go,9,21ptc,0,0,0,0,0,Omission,2,8,12,95,129,29,1.0,1,AABB
3.8.10,Windows,11122,15:28:3,999998,testrun,SART,1,nogo,142,142,25,90,nogo,3,10ptc,0,1,0,0,0,NoGo Success,2,9,13,95,129,29,1.0,1,AABB
3.8.10,Windows,11122,15:28:3,999998,testrun,SART,1,go,143,143,25,90,go,9,13ptc,0,0,0,0,0,Omission,2,9,13,96,130,29,1.0,1,AABB
3.8.10,Windows,11122,15:28:3,999998,testrun,SART,1,go,144,144,25,90,go,7,19ptc,0,0,0,0,0,Omission,2,9,13,97,131,29,1.0,1,AABB
3.8.10,Windows,11122,15:28:3,999998,testrun,SART,1,go,145,145,25,90,go,7,16ptc,0,0,0,0,0,Omission,2,9,13,98,132,29,1.0,1,AABB
3.8.10,Windows,11122,15:28:3,999998,testrun,SART,1,go,146,146,25,90,go,9,16ptc,0,0,0,0,0,Omission,2,9,13,99,133,29,0.0,1,AABB
3.8.10,Windows,11122,15:28:3,999998,testrun,SART,1,go,147,147,25,90,go,4,13ptc,0,0,0,0,0,Omission,2,9,13,100,134,29,0.0,1,AABB
3.8.10,Windows,11122,15:28:3,999998,testrun,SART,1,go,148,148,25,90,go,8,19ptc,0,0,0,0,0,Omission,2,9,13,101,135,29,0.0,1,AABB
3.8.10,Windows,11122,15:28:3,999998,testrun,SART,1,go,149,149,25,90,go,4,10ptc,0,0,0,0,0,Omission,2,9,13,102,136,29,0.0,1,AABB
3.8.10,Windows,11122,15:28:3,999998,testrun,SART,1,go,150,150,25,90,go,1,21ptc,0,0,0,0,0,Omission,2,9,13,103,137,29,1.0,1,AABB
3.8.10,Windows,11122,15:28:3,999998,testrun,SART,1,go,151,151,25,90,go,7,16ptc,0,0,0,0,0,Omission,2,9,13,104,138,29,1.0,1,AABB
3.8.10,Windows,11122,15:28:3,999998,testrun,SART,1,go,152,152,25,90,go,2,10ptc,0,0,0,0,0,Omission,2,9,13,105,139,29,1.0,1,AABB
3.8.10,Windows,11122,15:28:3,999998,testrun,SART,1,nogo,153,153,25,90,nogo,3,19ptc,0,1,0,0,0,NoGo Success,2,10,14,105,139,29,1.0,1,AABB
3.8.10,Windows,11122,15:28:3,999998,testrun,SART,1,go,154,154,25,90,go,6,13ptc,0,0,0,0,0,Omission,2,10,14,106,140,29,1.0,1,AABB
3.8.10,Windows,11122,15:28:3,999998,testrun,SART,1,go,155,155,25,90,go,6,21ptc,0,0,0,0,0,Omission,2,10,14,107,141,29,1.0,1,AABB
3.8.10,Windows,11122,15:28:3,999998,testrun,SART,1,go,156,156,25,90,go,8,13ptc,0,0,0,0,0,Omission,2,10,14,108,142,29,1.0,1,AABB
3.8.10,Windows,11122,15:28:3,999998,testrun,SART,1,go,157,157,25,90,go,7,19ptc,0,0,0,0,0,Omission,2,10,14,109,143,29,0.0,1,AABB
3.8.10,Windows,11122,15:28:3,999998,testrun,SART,1,go,158,158,25,90,go,8,10ptc,0,0,0,0,0,Omission,2,10,14,110,144,29,1.0,1,AABB
3.8.10,Windows,11122,15:28:3,999998,testrun,SART,1,go,159,159,25,90,go,8,21ptc,0,0,0,0,0,Omission,2,10,14,111,145,29,1.0,1,AABB
3.8.10,Windows,11122,15:28:3,999998,testrun,SART,1,go,160,160,25,90,go,4,16ptc,0,0,0,0,0,Omission,2,10,14,112,146,29,1.0,1,AABB
3.8.10,Windows,11122,15:28:3,999998,testrun,SART,1,nogo,161,161,25,90,nogo,3,21ptc,0,1,0,0,0,NoGo Success,2,11,15,112,146,29,1.0,1,AABB
3.8.10,Windows,11122,15:28:3,999998,testrun,SART,1,go,162,162,25,90,go,1,16ptc,0,0,0,0,0,Omission,2,11,15,113,147,29,1.0,1,AABB
3.8.10,Windows,11122,15:28:3,999998,testrun,SART,1,go,163,163,25,90,go,5,19ptc,0,0,0,0,0,Omission,2,11,15,114,148,29,1.0,1,AABB
3.8.10,Windows,11122,15:28:3,999998,testrun,SART,1,go,164,164,25,90,go,6,10ptc,0,0,0,0,0,Omission,2,11,15,115,149,29,1.0,1,AABB
3.8.10,Windows,11122,15:28:3,999998,testrun,SART,1,go,165,165,25,90,go,6,13ptc,0,0,0,0,0,Omission,2,11,15,116,150,29,0.0,1,AABB
3.8.10,Windows,11122,15:28:3,999998,testrun,SART,1,go,166,166,25,90,go,5,10ptc,0,0,0,0,0,Omission,2,11,15,117,151,29,0.0,1,AABB
3.8.10,Windows,11122,15:28:3,999998,testrun,SART,1,go,167,167,25,90,go,4,21ptc,0,0,0,0,0,Omission,2,11,15,118,152,29,1.0,1,AABB
3.8.10,Windows,11122,15:28:3,999998,testrun,SART,1,go,168,168,25,90,go,8,13ptc,0,0,0,0,0,Omission,2,11,15,119,153,29,1.0,1,AABB
3.8.10,Windows,11122,15:28:3,999998,testrun,SART,1,go,169,169,25,90,go,4,19ptc,0,0,0,0,0,Omission,2,11,15,120,154,29,1.0,1,AABB
3.8.10,Windows,11122,15:28:3,999998,testrun,SART,1,nogo,170,170,25,90,nogo,3,16ptc,0,1,0,0,0,NoGo Success,2,12,16,120,154,29,1.0,1,AABB
3.8.10,Windows,11122,15:28:3,999998,testrun,SART,1,go,171,171,25,90,go,7,19ptc,0,0,0,0,0,Omission,2,12,16,121,155,29,1.0,1,AABB
3.8.10,Windows,11122,15:28:3,999998,testrun,SART,1,go,172,172,25,90,go,2,16ptc,0,0,0,0,0,Omission,2,12,16,122,156,29,1.0,1,AABB
3.8.10,Windows,11122,15:28:3,999998,testrun,SART,1,go,173,173,25,90,go,1,21ptc,0,0,0,0,0,Omission,2,12,16,123,157,29,1.0,1,AABB
3.8.10,Windows,11122,15:28:3,999998,testrun,SART,1,go,174,174,25,90,go,8,10ptc,0,0,0,0,0,Omission,2,12,16,124,158,29,1.0,1,AABB
3.8.10,Windows,11122,15:28:3,999998,testrun,SART,1,go,175,175,25,90,go,5,13ptc,0,0,0,0,0,Omission,2,12,16,125,159,29,1.0,1,AABB
3.8.10,Windows,11122,15:28:3,999998,testrun,SART,1,nogo,176,176,25,90,nogo,3,13ptc,0,1,0,0,0,NoGo Success,2,13,17,125,159,29,1.0,1,AABB
3.8.10,Windows,11122,15:28:3,999998,testrun,SART,1,go,177,177,25,90,go,5,10ptc,0,0,0,0,0,Omission,2,13,17,126,160,29,1.0,1,AABB
3.8.10,Windows,11122,15:28:3,999998,testrun,SART,1,nogo,178,178,25,90,nogo,3,16ptc,0,1,0,0,0,NoGo Success,2,14,18,126,160,29,1.0,1,AABB
3.8.10,Windows,11122,15:28:3,999998,testrun,SART,1,go,179,179,25,90,go,9,21ptc,0,0,0,0,0,Omission,2,14,18,127,161,29,1.0,1,AABB
3.8.10,Windows,11122,15:28:3,999998,testrun,SART,1,nogo,180,180,25,90,nogo,3,19ptc,0,1,0,0,0,NoGo Success,2,15,19,127,161,29,1.0,1,AABB
3.8.10,Windows,11122,15:28:3,999998,testrun,SART,1,nogo,181,181,25,90,nogo,3,10ptc,0,1,0,0,0,NoGo Success,2,16,20,127,161,29,1.0,1,AABB
3.8.10,Windows,11122,15:28:3,999998,testrun,SART,1,go,182,182,25,90,go,5,21ptc,0,0,0,0,0,Omission,2,16,20,128,162,29,1.0,1,AABB
3.8.10,Windows,11122,15:28:3,999998,testrun,SART,1,nogo,183,183,25,90,nogo,3,13ptc,0,1,0,0,0,NoGo Success,2,17,21,128,162,29,1.0,1,AABB
3.8.10,Windows,11122,15:28:3,999998,testrun,SART,1,go,184,184,25,90,go,1,16ptc,0,0,0,0,0,Omission,2,17,21,129,163,29,1.0,1,AABB
3.8.10,Windows,11122,15:28:3,999998,testrun,SART,1,go,185,185,25,90,go,5,19ptc,0,0,0,0,0,Omission,2,17,21,130,164,29,1.0,1,AABB
3.8.10,Windows,11122,15:28:3,999998,testrun,SART,1,go,186,186,25,90,go,6,21ptc,0,0,0,0,0,Omission,2,17,21,131,165,29,1.0,1,AABB
3.8.10,Windows,11122,15:28:3,999998,testrun,SART,1,nogo,187,187,25,90,nogo,3,10ptc,0,1,0,0,0,NoGo Success,2,18,22,131,165,29,1.0,1,AABB
3.8.10,Windows,11122,15:28:3,999998,testrun,SART,1,go,188,188,25,90,go,4,16ptc,0,0,0,0,0,Omission,2,18,22,132,166,29,1.0,1,AABB
3.8.10,Windows,11122,15:28:3,999998,testrun,SART,1,go,189,189,25,90,go,6,19ptc,0,0,0,0,0,Omission,2,18,22,133,167,29,1.0,1,AABB
3.8.10,Windows,11122,15:28:3,999998,testrun,SART,1,go,190,190,25,90,go,6,13ptc,0,0,0,0,0,Omission,2,18,22,134,168,29,1.0,1,AABB
3.8.10,Windows,11122,15:28:3,999998,testrun,SART,1,go,191,191,25,90,go,1,10ptc,0,0,0,0,0,Omission,2,18,22,135,169,29,1.0,1,AABB
3.8.10,Windows,11122,15:28:3,999998,testrun,SART,1,go,192,192,25,90,go,8,16ptc,0,0,0,0,0,Omission,2,18,22,136,170,29,1.0,1,AABB
3.8.10,Windows,11122,15:28:3,999998,testrun,SART,1,nogo,193,193,25,90,nogo,3,21ptc,0,1,0,0,0,NoGo Success,2,19,23,136,170,29,1.0,1,AABB
3.8.10,Windows,11122,15:28:3,999998,testrun,SART,1,go,194,194,25,90,go,4,13ptc,0,0,0,0,0,Omission,2,19,23,137,171,29,1.0,1,AABB
3.8.10,Windows,11122,15:28:3,999998,testrun,SART,1,go,195,195,25,90,go,7,19ptc,0,0,0,0,0,Omission,2,19,23,138,172,29,1.0,1,AABB
3.8.10,Windows,11122,15:28:3,999998,testrun,SART,1,go,196,196,25,90,go,9,21ptc,0,0,0,0,0,Omission,2,19,23,139,173,29,1.0,1,AABB
3.8.10,Windows,11122,15:28:3,999998,testrun,SART,1,go,197,197,25,90,go,1,16ptc,0,0,0,0,0,Omission,2,19,23,140,174,29,1.0,1,AABB
3.8.10,Windows,11122,15:28:3,999998,testrun,SART,1,go,198,198,25,90,go,7,19ptc,0,0,0,0,0,Omission,2,19,23,141,175,29,1.0,1,AABB
3.8.10,Windows,11122,15:28:3,999998,testrun,SART,1,nogo,199,199,25,90,nogo,3,13ptc,0,1,0,0,0,NoGo Success,2,20,24,141,175,29,1.0,1,AABB
3.8.10,Windows,11122,15:28:3,999998,testrun,SART,1,go,200,200,25,90,go,1,10ptc,0,0,0,0,0,Omission,2,20,24,142,176,29,1.0,1,AABB
3.8.10,Windows,11122,15:28:3,999998,testrun,SART,1,go,201,201,25,90,go,4,10ptc,0,0,0,0,0,Omission,2,20,24,143,177,29,1.0,1,AABB
3.8.10,Windows,11122,15:28:3,999998,testrun,SART,1,go,202,202,25,90,go,2,16ptc,0,0,0,0,0,Omission,2,20,24,144,178,29,1.0,1,AABB
3.8.10,Windows,11122,15:28:3,999998,testrun,SART,1,go,203,203,25,90,go,2,21ptc,0,0,0,0,0,Omission,2,20,24,145,179,29,0.0,1,AABB
3.8.10,Windows,11122,15:28:3,999998,testrun,SART,1,go,204,204,25,90,go,7,19ptc,0,0,0,0,0,Omission,2,20,24,146,180,29,0.0,1,AABB
3.8.10,Windows,11122,15:28:3,999998,testrun,SART,1,go,205,205,25,90,go,2,13ptc,0,0,0,0,0,Omission,2,20,24,147,181,29,1.0,1,AABB
3.8.10,Windows,11122,15:28:3,999998,testrun,SART,1,go,206,206,25,90,go,5,10ptc,0,0,0,0,0,Omission,2,20,24,148,182,29,1.0,1,AABB
3.8.10,Windows,11122,15:28:3,999998,testrun,SART,1,go,207,207,25,90,go,6,13ptc,0,0,0,0,0,Omission,2,20,24,149,183,29,1.0,1,AABB
3.8.10,Windows,11122,15:28:3,999998,testrun,SART,1,nogo,208,208,25,90,nogo,3,16ptc,0,1,0,0,0,NoGo Success,2,21,25,149,183,29,1.0,1,AABB
3.8.10,Windows,11122,15:28:3,999998,testrun,SART,1,go,209,209,25,90,go,5,21ptc,0,0,0,0,0,Omission,2,21,25,150,184,29,1.0,1,AABB
3.8.10,Windows,11122,15:28:3,999998,testrun,SART,1,go,210,210,25,90,go,9,19ptc,0,0,0,0,0,Omission,2,21,25,151,185,29,1.0,1,AABB
3.8.10,Windows,11122,15:28:3,999998,testrun,SART,1,go,211,211,25,90,go,9,10ptc,0,0,0,0,0,Omission,2,21,25,152,186,29,1.0,1,AABB
3.8.10,Windows,11122,15:28:3,999998,testrun,SART,1,go,212,212,25,90,go,4,16ptc,0,0,0,0,0,Omission,2,21,25,153,187,29,0.0,1,AABB
3.8.10,Windows,11122,15:28:3,999998,testrun,SART,1,go,213,213,25,90,go,1,19ptc,0,0,0,0,0,Omission,2,21,25,154,188,29,0.0,1,AABB
3.8.10,Windows,11122,15:28:3,999998,testrun,SART,1,go,214,214,25,90,go,6,21ptc,0,0,0,0,0,Omission,2,21,25,155,189,29,0.0,1,AABB
3.8.10,Windows,11122,15:28:3,999998,testrun,SART,1,go,215,215,25,90,go,8,13ptc,0,0,0,0,0,Omission,2,21,25,156,190,29,0.0,1,AABB
3.8.10,Windows,11122,15:28:3,999998,testrun,SART,1,go,216,216,25,90,go,5,19ptc,0,0,0,0,0,Omission,2,21,25,157,191,29,0.0,1,AABB
3.8.10,Windows,11122,15:28:3,999998,testrun,SART,1,go,217,217,25,90,go,2,16ptc,0,0,0,0,0,Omission,2,21,25,158,192,29,0.0,1,AABB
3.8.10,Windows,11122,15:28:3,999998,testrun,SART,1,go,218,218,25,90,go,5,13ptc,0,0,0,0,0,Omission,2,21,25,159,193,29,0.0,1,AABB
3.8.10,Windows,11122,15:28:3,999998,testrun,SART,1,go,219,219,25,90,go,1,21ptc,0,0,0,0,0,Omission,2,21,25,160,194,29,0.0,1,AABB
3.8.10,Windows,11122,15:28:3,999998,testrun,SART,1,go,220,220,25,90,go,1,10ptc,0,0,0,0,0,Omission,2,21,25,161,195,29,0.0,1,AABB
3.8.10,Windows,11122,15:28:3,999998,testrun,SART,1,go,221,221,25,90,go,5,10ptc,0,0,0,0,0,Omission,2,21,25,162,196,29,0.0,1,AABB
3.8.10,Windows,11122,15:28:3,999998,testrun,SART,1,go,222,222,25,90,go,5,13ptc,0,0,0,0,0,Omission,2,21,25,163,197,29,0.0,1,AABB
3.8.10,Windows,11122,15:28:3,999998,testrun,SART,1,go,223,223,25,90,go,8,16ptc,0,0,0,0,0,Omission,2,21,25,164,198,29,0.0,1,AABB
3.8.10,Windows,11122,15:28:3,999998,testrun,SART,1,go,224,224,25,90,go,2,21ptc,0,0,0,0,0,Omission,2,21,25,165,199,29,0.0,1,AABB
3.8.10,Windows,11122,15:28:3,999998,testrun,SART,1,go,225,225,25,90,go,2,19ptc,0,0,0,0,0,Omission,2,21,25,166,200,29,0.0,1,AABB
