build,computer.platform,date,time,subject,group,blockcode,blocknum,trialcode,trialnum,expressions.trialcount,parameters.digitpresentationtime,parameters.maskpresentationtime,values.trialtype,values.digit,values.fontsize,response,correct,values.RT,latency,values.latencytype,values.responsetype,values.count_anticipatory,values.correctsuppressions,values.count_NoGo,values.incorrectsuppressions,values.count_Go,values.count_validGo,values.dostim,values.amp,values.order
3.8.10,Windows,91622,14:39:12,01,test,SART,1,go,1,1,25,90,go,5,16ptc,0,0,0,0,0,Omission,0,0,0,1,1,0,0.0,0,BBAA
3.8.10,Windows,91622,14:39:12,01,test,SART,1,go,2,2,25,90,go,9,21ptc,0,0,0,0,0,Omission,0,0,0,2,2,0,0.0,0,BBAA
3.8.10,Windows,91622,14:39:12,01,test,SART,1,go,3,3,25,90,go,9,10ptc,0,0,0,0,0,Omission,0,0,0,3,3,0,0.0,0,BBAA
3.8.10,Windows,91622,14:39:12,01,test,SART,1,go,4,4,25,90,go,1,13ptc,0,0,0,0,0,Omission,0,0,0,4,4,0,0.0,0,BBAA
3.8.10,Windows,91622,14:39:12,01,test,SART,1,go,5,5,25,90,go,2,19ptc,0,0,0,0,0,Omission,0,0,0,5,5,0,0.0,0,BBAA
3.8.10,Windows,91622,14:39:12,01,test,SART,1,go,6,6,25,90,go,2,16ptc,0,0,0,0,0,Omission,0,0,0,6,6,0,0.0,0,BBAA
3.8.10,Windows,91622,14:39:12,01,test,SART,1,go,7,7,25,90,go,7,21ptc,0,0,0,0,0,Omission,0,0,0,7,7,0,0.0,0,BBAA
3.8.10,Windows,91622,14:39:12,01,test,SART,1,go,8,8,25,90,go,2,19ptc,0,0,0,0,0,Omission,0,0,0,8,8,0,0.0,0,BBAA
3.8.10,Windows,91622,14:39:12,01,test,SART,1,go,9,9,25,90,go,1,10ptc,0,0,0,0,0,Omission,0,0,0,9,9,0,0.0,0,BBAA
3.8.10,Windows,91622,14:39:12,01,test,SART,1,go,10,10,25,90,go,6,13ptc,0,0,0,0,0,Omission,0,0,0,10,10,0,0.0,0,BBAA
3.8.10,Windows,91622,14:39:12,01,test,SART,1,go,11,11,25,90,go,8,13ptc,0,0,0,0,0,Omission,0,0,0,11,11,0,0.0,0,BBAA
3.8.10,Windows,91622,14:39:12,01,test,SART,1,go,12,12,25,90,go,5,19ptc,0,0,0,0,0,Omission,0,0,0,12,12,0,0.0,0,BBAA
3.8.10,Windows,91622,14:39:12,01,test,SART,1,go,13,13,25,90,go,1,21ptc,0,0,0,0,0,Omission,0,0,0,13,13,0,1.0,0,BBAA
3.8.10,Windows,91622,14:39:12,01,test,SART,1,go,14,14,25,90,go,8,10ptc,0,0,0,0,0,Omission,0,0,0,14,14,0,1.0,0,BBAA
3.8.10,Windows,91622,14:39:12,01,test,SART,1,nogo,15,15,25,90,nogo,3,16ptc,0,1,0,0,0,NoGo Success,0,1,1,14,14,0,1.0,0,BBAA
3.8.10,Windows,91622,14:39:12,01,test,SART,1,go,16,16,25,90,go,5,19ptc,0,0,0,0,0,Omission,0,1,1,15,15,0,1.0,0,BBAA
3.8.10,Windows,91622,14:39:12,01,test,SART,1,go,17,17,25,90,go,8,10ptc,0,0,0,0,0,Omission,0,1,1,16,16,0,1.0,0,BBAA
3.8.10,Windows,91622,14:39:12,01,test,SART,1,go,18,18,25,90,go,1,16ptc,0,0,0,0,0,Omission,0,1,1,17,17,0,0.0,0,BBAA
3.8.10,Windows,91622,14:39:12,01,test,SART,1,go,19,19,25,90,go,5,21ptc,0,0,0,0,0,Omission,0,1,1,18,18,0,1.0,0,BBAA
3.8.10,Windows,91622,14:39:12,01,test,SART,1,go,20,20,25,90,go,2,13ptc,0,0,0,0,0,Omission,0,1,1,19,19,0,1.0,0,BBAA
3.8.10,Windows,91622,14:39:12,01,test,SART,1,nogo,21,21,25,90,nogo,3,19ptc,0,1,0,0,0,NoGo Success,0,2,2,19,19,0,1.0,0,BBAA
3.8.10,Windows,91622,14:39:12,01,test,SART,1,go,22,22,25,90,go,2,10ptc,0,0,0,0,0,Omission,0,2,2,20,20,0,1.0,0,BBAA
3.8.10,Windows,91622,14:39:12,01,test,SART,1,go,23,23,25,90,go,7,16ptc,0,0,0,0,0,Omission,0,2,2,21,21,0,1.0,0,BBAA
3.8.10,Windows,91622,14:39:12,01,test,SART,1,go,24,24,25,90,go,5,13ptc,0,0,0,0,0,Omission,0,2,2,22,22,0,0.0,0,BBAA
3.8.10,Windows,91622,14:39:12,01,test,SART,1,go,25,25,25,90,go,7,21ptc,0,0,0,0,0,Omission,0,2,2,23,23,0,1.0,0,BBAA
3.8.10,Windows,91622,14:39:12,01,test,SART,1,go,26,26,25,90,go,8,10ptc,0,0,0,0,0,Omission,0,2,2,24,24,0,1.0,0,BBAA
3.8.10,Windows,91622,14:39:12,01,test,SART,1,nogo,27,27,25,90,nogo,3,21ptc,0,1,0,0,0,NoGo Success,0,3,3,24,24,0,1.0,0,BBAA
3.8.10,Windows,91622,14:39:12,01,test,SART,1,go,28,28,25,90,go,7,19ptc,0,0,0,0,0,Omission,0,3,3,25,25,0,1.0,0,BBAA
3.8.10,Windows,91622,14:39:12,01,test,SART,1,nogo,29,29,25,90,nogo,3,16ptc,0,1,0,0,0,NoGo Success,0,4,4,25,25,0,1.0,0,BBAA
3.8.10,Windows,91622,14:39:12,01,test,SART,1,go,30,30,25,90,go,1,13ptc,0,0,0,0,0,Omission,0,4,4,26,26,0,1.0,0,BBAA
3.8.10,Windows,91622,14:39:12,01,test,SART,1,go,31,31,25,90,go,1,13ptc,0,0,0,0,0,Omission,0,4,4,27,27,0,1.0,0,BBAA
3.8.10,Windows,91622,14:39:12,01,test,SART,1,go,32,32,25,90,go,8,19ptc,0,0,0,0,0,Omission,0,4,4,28,28,0,0.0,0,BBAA
3.8.10,Windows,91622,14:39:12,01,test,SART,1,go,33,33,25,90,go,9,21ptc,0,0,0,0,0,Omission,0,4,4,29,29,0,0.0,0,BBAA
3.8.10,Windows,91622,14:39:12,01,test,SART,1,go,34,34,25,90,go,1,16ptc,0,0,0,0,0,Omission,0,4,4,30,30,0,0.0,0,BBAA
3.8.10,Windows,91622,14:39:12,01,test,SART,1,go,35,35,25,90,go,8,10ptc,0,0,0,0,0,Omission,0,4,4,31,31,0,0.0,0,BBAA
3.8.10,Windows,91622,14:39:12,01,test,SART,1,go,36,36,25,90,go,8,13ptc,0,0,0,0,0,Omission,0,4,4,32,32,0,0.0,0,BBAA
3.8.10,Windows,91622,14:39:12,01,test,SART,1,go,37,37,25,90,go,6,10ptc,0,0,0,0,0,Omission,0,4,4,33,33,0,0.0,0,BBAA
3.8.10,Windows,91622,14:39:12,01,test,SART,1,go,38,38,25,90,go,8,19ptc,0,0,0,0,0,Omission,0,4,4,34,34,0,0.0,0,BBAA
3.8.10,Windows,91622,14:39:12,01,test,SART,1,go,39,39,25,90,go,9,16ptc,0,0,0,0,0,Omission,0,4,4,35,35,0,1.0,0,BBAA
3.8.10,Windows,91622,14:39:12,01,test,SART,1,go,40,40,25,90,go,7,21ptc,0,0,0,0,0,Omission,0,4,4,36,36,0,1.0,0,BBAA
3.8.10,Windows,91622,14:39:12,01,test,SART,1,nogo,41,41,25,90,nogo,3,13ptc,0,1,0,0,0,NoGo Success,0,5,5,36,36,0,1.0,0,BBAA
3.8.10,Windows,91622,14:39:12,01,test,SART,1,go,42,42,25,90,go,9,21ptc,0,0,0,0,0,Omission,0,5,5,37,37,0,1.0,0,BBAA
3.8.10,Windows,91622,14:39:12,01,test,SART,1,go,43,43,25,90,go,9,16ptc,0,0,0,0,0,Omission,0,5,5,38,38,0,1.0,0,BBAA
3.8.10,Windows,91622,14:39:12,01,test,SART,1,go,44,44,25,90,go,9,10ptc,0,0,0,0,0,Omission,0,5,5,39,39,0,0.0,0,BBAA
3.8.10,Windows,91622,14:39:12,01,test,SART,1,go,45,45,25,90,go,5,19ptc,0,0,0,0,0,Omission,0,5,5,40,40,0,0.0,0,BBAA
3.8.10,Windows,91622,14:39:12,01,test,SART,1,go,46,46,25,90,go,1,19ptc,0,0,0,0,0,Omission,0,5,5,41,41,0,1.0,0,BBAA
3.8.10,Windows,91622,14:39:12,01,test,SART,1,go,47,47,25,90,go,9,13ptc,0,0,0,0,0,Omission,0,5,5,42,42,0,1.0,0,BBAA
3.8.10,Windows,91622,14:39:12,01,test,SART,1,nogo,48,48,25,90,nogo,3,21ptc,0,1,0,0,0,NoGo Success,0,6,6,42,42,0,1.0,0,BBAA
3.8.10,Windows,91622,14:39:12,01,test,SART,1,go,49,49,25,90,go,6,10ptc,0,0,0,0,0,Omission,0,6,6,43,43,0,1.0,0,BBAA
3.8.10,Windows,91622,14:39:12,01,test,SART,1,nogo,50,50,25,90,nogo,3,16ptc,0,1,0,0,0,NoGo Success,0,7,7,43,43,0,1.0,0,BBAA
3.8.10,Windows,91622,14:39:12,01,test,SART,1,go,51,51,25,90,go,9,13ptc,0,0,0,0,0,Omission,0,7,7,44,44,0,1.0,0,BBAA
3.8.10,Windows,91622,14:39:12,01,test,SART,1,go,52,52,25,90,go,5,10ptc,0,0,0,0,0,Omission,0,7,7,45,45,0,1.0,0,BBAA
3.8.10,Windows,91622,14:39:12,01,test,SART,1,go,53,53,25,90,go,4,16ptc,0,0,0,0,0,Omission,0,7,7,46,46,0,1.0,0,BBAA
3.8.10,Windows,91622,14:39:12,01,test,SART,1,nogo,54,54,25,90,nogo,3,19ptc,0,1,0,0,0,NoGo Success,0,8,8,46,46,0,1.0,0,BBAA
3.8.10,Windows,91622,14:39:12,01,test,SART,1,nogo,55,55,25,90,nogo,3,21ptc,0,1,0,0,0,NoGo Success,0,9,9,46,46,0,1.0,0,BBAA
3.8.10,Windows,91622,14:39:12,01,test,SART,1,nogo,56,56,25,90,nogo,3,10ptc,0,1,0,0,0,NoGo Success,0,10,10,46,46,0,1.0,0,BBAA
3.8.10,Windows,91622,14:39:12,01,test,SART,1,go,57,57,25,90,go,2,16ptc,0,0,0,0,0,Omission,0,10,10,47,47,0,1.0,0,BBAA
3.8.10,Windows,91622,14:39:12,01,test,SART,1,go,58,58,25,90,go,7,21ptc,0,0,0,0,0,Omission,0,10,10,48,48,0,1.0,0,BBAA
3.8.10,Windows,91622,14:39:12,01,test,SART,1,go,59,59,25,90,go,4,19ptc,0,0,0,0,0,Omission,0,10,10,49,49,0,0.0,0,BBAA
3.8.10,Windows,91622,14:39:12,01,test,SART,1,go,60,60,25,90,go,4,13ptc,0,0,0,0,0,Omission,0,10,10,50,50,0,0.0,0,BBAA
3.8.10,Windows,91622,14:39:12,01,test,SART,1,go,61,61,25,90,go,5,13ptc,0,0,0,0,0,Omission,0,10,10,51,51,0,1.0,0,BBAA
3.8.10,Windows,91622,14:39:12,01,test,SART,1,go,62,62,25,90,go,5,19ptc,0,0,0,0,0,Omission,0,10,10,52,52,0,1.0,0,BBAA
3.8.10,Windows,91622,14:39:12,01,test,SART,1,nogo,63,63,25,90,nogo,3,16ptc,0,1,0,0,0,NoGo Success,0,11,11,52,52,0,1.0,0,BBAA
3.8.10,Windows,91622,14:39:12,01,test,SART,1,go,64,64,25,90,go,4,21ptc,0,0,0,0,0,Omission,0,11,11,53,53,0,1.0,0,BBAA
3.8.10,Windows,91622,14:39:12,01,test,SART,1,go,65,65,25,90,go,5,10ptc,0,0,0,0,0,Omission,0,11,11,54,54,0,1.0,0,BBAA
3.8.10,Windows,91622,14:39:12,01,test,SART,1,nogo,66,66,25,90,nogo,3,19ptc,0,1,0,0,0,NoGo Success,0,12,12,54,54,0,1.0,0,BBAA
3.8.10,Windows,91622,14:39:12,01,test,SART,1,go,67,67,25,90,go,6,13ptc,0,0,0,0,0,Omission,0,12,12,55,55,0,1.0,0,BBAA
3.8.10,Windows,91622,14:39:12,01,test,SART,1,go,68,68,25,90,go,9,16ptc,0,0,0,0,0,Omission,0,12,12,56,56,0,1.0,0,BBAA
3.8.10,Windows,91622,14:39:12,01,test,SART,1,nogo,69,69,25,90,nogo,3,10ptc,0,1,0,0,0,NoGo Success,0,13,13,56,56,0,1.0,0,BBAA
3.8.10,Windows,91622,14:39:12,01,test,SART,1,go,70,70,25,90,go,1,21ptc,0,0,0,0,0,Omission,0,13,13,57,57,0,1.0,0,BBAA
3.8.10,Windows,91622,14:39:12,01,test,SART,1,go,71,71,25,90,go,7,19ptc,0,0,0,0,0,Omission,0,13,13,58,58,0,1.0,0,BBAA
3.8.10,Windows,91622,14:39:12,01,test,SART,1,go,72,72,25,90,go,4,13ptc,0,0,0,0,0,Omission,0,13,13,59,59,0,0.0,0,BBAA
3.8.10,Windows,91622,14:39:12,01,test,SART,1,go,73,73,25,90,go,8,16ptc,0,0,0,0,0,Omission,0,13,13,60,60,0,0.0,0,BBAA
3.8.10,Windows,91622,14:39:12,01,test,SART,1,go,74,74,25,90,go,9,10ptc,0,0,0,0,0,Omission,0,13,13,61,61,0,0.0,0,BBAA
3.8.10,Windows,91622,14:39:12,01,test,SART,1,go,75,75,25,90,go,1,21ptc,0,0,0,0,0,Omission,0,13,13,62,62,0,0.0,0,BBAA
3.8.10,Windows,91622,14:39:12,01,test,SART,1,go,76,76,25,90,go,2,16ptc,0,0,0,0,0,Omission,0,13,13,63,63,0,1.0,0,BBAA
3.8.10,Windows,91622,14:39:12,01,test,SART,1,go,77,77,25,90,go,8,10ptc,0,0,0,0,0,Omission,0,13,13,64,64,0,1.0,0,BBAA
3.8.10,Windows,91622,14:39:12,01,test,SART,1,nogo,78,78,25,90,nogo,3,21ptc,0,1,0,0,0,NoGo Success,0,14,14,64,64,0,1.0,0,BBAA
3.8.10,Windows,91622,14:39:12,01,test,SART,1,go,79,79,25,90,go,9,13ptc,0,0,0,0,0,Omission,0,14,14,65,65,0,1.0,0,BBAA
3.8.10,Windows,91622,14:39:12,01,test,SART,1,nogo,80,80,25,90,nogo,3,19ptc,0,1,0,0,0,NoGo Success,0,15,15,65,65,0,1.0,0,BBAA
3.8.10,Windows,91622,14:39:12,01,test,SART,1,nogo,81,81,25,90,nogo,3,16ptc,0,1,0,0,0,NoGo Success,0,16,16,65,65,0,1.0,0,BBAA
3.8.10,Windows,91622,14:39:12,01,test,SART,1,go,82,82,25,90,go,9,10ptc,0,0,0,0,0,Omission,0,16,16,66,66,0,1.0,0,BBAA
3.8.10,Windows,91622,14:39:12,01,test,SART,1,go,83,83,25,90,go,4,21ptc,0,0,0,0,0,Omission,0,16,16,67,67,0,1.0,0,BBAA
3.8.10,Windows,91622,14:39:12,01,test,SART,1,go,84,84,25,90,go,4,19ptc,0,0,0,0,0,Omission,0,16,16,68,68,0,0.0,0,BBAA
3.8.10,Windows,91622,14:39:12,01,test,SART,1,go,85,85,25,90,go,7,13ptc,0,0,0,0,0,Omission,0,16,16,69,69,0,0.0,0,BBAA
3.8.10,Windows,91622,14:39:12,01,test,SART,1,go,86,86,25,90,go,4,13ptc,0,0,0,0,0,Omission,0,16,16,70,70,0,0.0,0,BBAA
3.8.10,Windows,91622,14:39:12,01,test,SART,1,go,87,87,25,90,go,9,16ptc,0,0,0,0,0,Omission,0,16,16,71,71,0,0.0,0,BBAA
3.8.10,Windows,91622,14:39:12,01,test,SART,1,go,88,88,25,90,go,4,10ptc,0,0,0,0,0,Omission,0,16,16,72,72,0,0.0,0,BBAA
3.8.10,Windows,91622,14:39:12,01,test,SART,1,go,89,89,25,90,go,6,19ptc,0,0,0,0,0,Omission,0,16,16,73,73,0,0.0,0,BBAA
3.8.10,Windows,91622,14:39:12,01,test,SART,1,go,90,90,25,90,go,6,21ptc,0,0,0,0,0,Omission,0,16,16,74,74,0,0.0,0,BBAA
3.8.10,Windows,91622,14:39:12,01,test,SART,1,go,91,91,25,90,go,8,16ptc,0,0,0,0,0,Omission,0,16,16,75,75,0,0.0,0,BBAA
3.8.10,Windows,91622,14:39:12,01,test,SART,1,go,92,92,25,90,go,5,19ptc,0,0,0,0,0,Omission,0,16,16,76,76,0,0.0,0,BBAA
3.8.10,Windows,91622,14:39:12,01,test,SART,1,go,93,93,25,90,go,8,13ptc,0,0,0,0,0,Omission,0,16,16,77,77,0,0.0,0,BBAA
3.8.10,Windows,91622,14:39:12,01,test,SART,1,go,94,94,25,90,go,1,10ptc,0,0,0,0,0,Omission,0,16,16,78,78,0,1.0,0,BBAA
3.8.10,Windows,91622,14:39:12,01,test,SART,1,go,95,95,25,90,go,1,21ptc,0,0,0,0,0,Omission,0,16,16,79,79,0,1.0,0,BBAA
3.8.10,Windows,91622,14:39:12,01,test,SART,1,nogo,96,96,25,90,nogo,3,19ptc,0,1,0,0,0,NoGo Success,0,17,17,79,79,0,1.0,0,BBAA
3.8.10,Windows,91622,14:39:12,01,test,SART,1,go,97,97,25,90,go,4,21ptc,0,0,0,0,0,Omission,0,17,17,80,80,0,1.0,0,BBAA
3.8.10,Windows,91622,14:39:12,01,test,SART,1,nogo,98,98,25,90,nogo,3,13ptc,0,1,0,0,0,NoGo Success,0,18,18,80,80,0,1.0,0,BBAA
3.8.10,Windows,91622,14:39:12,01,test,SART,1,go,99,99,25,90,go,4,10ptc,0,0,0,0,0,Omission,0,18,18,81,81,0,1.0,0,BBAA
3.8.10,Windows,91622,14:39:12,01,test,SART,1,go,100,100,25,90,go,5,16ptc,0,0,0,0,0,Omission,0,18,18,82,82,0,1.0,0,BBAA
3.8.10,Windows,91622,14:39:12,01,test,SART,1,nogo,101,101,25,90,nogo,3,13ptc,0,1,0,0,0,NoGo Success,0,19,19,82,82,0,1.0,0,BBAA
3.8.10,Windows,91622,14:39:12,01,test,SART,1,go,102,102,25,90,go,1,16ptc,0,0,0,0,0,Omission,0,19,19,83,83,0,1.0,0,BBAA
3.8.10,Windows,91622,14:39:12,01,test,SART,1,go,103,103,25,90,go,7,19ptc,0,0,0,0,0,Omission,0,19,19,84,84,0,1.0,0,BBAA
3.8.10,Windows,91622,14:39:12,01,test,SART,1,go,104,104,25,90,go,7,10ptc,0,0,0,0,0,Omission,0,19,19,85,85,0,0.0,0,BBAA
3.8.10,Windows,91622,14:39:12,01,test,SART,1,go,105,105,25,90,go,5,21ptc,0,0,0,0,0,Omission,0,19,19,86,86,0,0.0,0,BBAA
3.8.10,Windows,91622,14:39:12,01,test,SART,1,go,106,106,25,90,go,1,19ptc,0,0,0,0,0,Omission,0,19,19,87,87,0,0.0,0,BBAA
3.8.10,Windows,91622,14:39:12,01,test,SART,1,go,107,107,25,90,go,6,21ptc,0,0,0,0,0,Omission,0,19,19,88,88,0,0.0,0,BBAA
3.8.10,Windows,91622,14:39:12,01,test,SART,1,go,108,108,25,90,go,2,13ptc,0,0,0,0,0,Omission,0,19,19,89,89,0,0.0,0,BBAA
3.8.10,Windows,91622,14:39:12,01,test,SART,1,go,109,109,25,90,go,9,10ptc,0,0,0,0,0,Omission,0,19,19,90,90,0,0.0,0,BBAA
3.8.10,Windows,91622,14:39:12,01,test,SART,1,go,110,110,25,90,go,4,16ptc,0,0,0,0,0,Omission,0,19,19,91,91,0,0.0,0,BBAA
3.8.10,Windows,91622,14:39:12,01,test,SART,1,go,111,111,25,90,go,8,19ptc,0,0,0,0,0,Omission,0,19,19,92,92,0,0.0,0,BBAA
3.8.10,Windows,91622,14:39:12,01,test,SART,1,go,112,112,25,90,go,5,13ptc,0,0,0,0,0,Omission,0,19,19,93,93,0,0.0,0,BBAA
3.8.10,Windows,91622,14:39:12,01,test,SART,1,go,113,113,25,90,go,1,21ptc,0,0,0,0,0,Omission,0,19,19,94,94,0,0.0,0,BBAA
3.8.10,Windows,91622,14:39:12,01,test,SART,1,go,114,114,25,90,go,1,16ptc,0,0,0,0,0,Omission,0,19,19,95,95,0,1.0,0,BBAA
3.8.10,Windows,91622,14:39:12,01,test,SART,1,go,115,115,25,90,go,8,10ptc,0,0,0,0,0,Omission,0,19,19,96,96,0,1.0,0,BBAA
3.8.10,Windows,91622,14:39:12,01,test,SART,1,nogo,116,116,25,90,nogo,3,21ptc,0,1,0,0,0,NoGo Success,0,20,20,96,96,0,1.0,0,BBAA
3.8.10,Windows,91622,14:39:12,01,test,SART,1,go,117,117,25,90,go,2,16ptc,0,0,0,0,0,Omission,0,20,20,97,97,0,1.0,0,BBAA
3.8.10,Windows,91622,14:39:12,01,test,SART,1,go,118,118,25,90,go,8,10ptc,0,0,0,0,0,Omission,0,20,20,98,98,0,1.0,0,BBAA
3.8.10,Windows,91622,14:39:12,01,test,SART,1,go,119,119,25,90,go,6,13ptc,0,0,0,0,0,Omission,0,20,20,99,99,0,0.0,0,BBAA
3.8.10,Windows,91622,14:39:12,01,test,SART,1,go,120,120,25,90,go,1,19ptc,0,0,0,0,0,Omission,0,20,20,100,100,0,0.0,0,BBAA
3.8.10,Windows,91622,14:39:12,01,test,SART,1,go,121,121,25,90,go,6,13ptc,0,0,0,0,0,Omission,0,20,20,101,101,0,0.0,0,BBAA
3.8.10,Windows,91622,14:39:12,01,test,SART,1,go,122,122,25,90,go,7,19ptc,0,0,0,0,0,Omission,0,20,20,102,102,0,0.0,0,BBAA
3.8.10,Windows,91622,14:39:12,01,test,SART,1,go,123,123,25,90,go,4,16ptc,0,0,0,0,0,Omission,0,20,20,103,103,0,0.0,0,BBAA
3.8.10,Windows,91622,14:39:12,01,test,SART,1,go,124,124,25,90,go,4,10ptc,0,0,0,0,0,Omission,0,20,20,104,104,0,0.0,0,BBAA
3.8.10,Windows,91622,14:39:12,01,test,SART,1,go,125,125,25,90,go,5,21ptc,0,0,0,0,0,Omission,0,20,20,105,105,0,1.0,0,BBAA
3.8.10,Windows,91622,14:39:12,01,test,SART,1,go,126,126,25,90,go,5,21ptc,0,0,0,0,0,Omission,0,20,20,106,106,0,1.0,0,BBAA
3.8.10,Windows,91622,14:39:12,01,test,SART,1,nogo,127,127,25,90,nogo,3,10ptc,0,1,0,0,0,NoGo Success,0,21,21,106,106,0,1.0,0,BBAA
3.8.10,Windows,91622,14:39:12,01,test,SART,1,go,128,128,25,90,go,5,16ptc,0,0,0,0,0,Omission,0,21,21,107,107,0,1.0,0,BBAA
3.8.10,Windows,91622,14:39:12,01,test,SART,1,go,129,129,25,90,go,4,19ptc,0,0,0,0,0,Omission,0,21,21,108,108,0,1.0,0,BBAA
3.8.10,Windows,91622,14:39:12,01,test,SART,1,go,130,130,25,90,go,6,13ptc,0,0,0,0,0,Omission,0,21,21,109,109,0,0.0,0,BBAA
3.8.10,Windows,91622,14:39:12,01,test,SART,1,go,131,131,25,90,go,4,13ptc,0,0,0,0,0,Omission,0,21,21,110,110,0,0.0,0,BBAA
3.8.10,Windows,91622,14:39:12,01,test,SART,1,go,132,132,25,90,go,5,16ptc,0,0,0,0,0,Omission,0,21,21,111,111,0,0.0,0,BBAA
3.8.10,Windows,91622,14:39:12,01,test,SART,1,go,133,133,25,90,go,2,19ptc,0,0,0,0,0,Omission,0,21,21,112,112,0,0.0,0,BBAA
3.8.10,Windows,91622,14:39:12,01,test,SART,1,go,134,134,25,90,go,9,21ptc,0,0,0,0,0,Omission,0,21,21,113,113,0,0.0,0,BBAA
3.8.10,Windows,91622,14:39:12,01,test,SART,1,go,135,135,25,90,go,6,10ptc,0,0,0,0,0,Omission,0,21,21,114,114,0,0.0,0,BBAA
3.8.10,Windows,91622,14:39:12,01,test,SART,1,go,136,136,25,90,go,2,19ptc,0,0,0,0,0,Omission,0,21,21,115,115,0,0.0,0,BBAA
3.8.10,Windows,91622,14:39:12,01,test,SART,1,go,137,137,25,90,go,6,21ptc,0,0,0,0,0,Omission,0,21,21,116,116,0,1.0,0,BBAA
3.8.10,Windows,91622,14:39:12,01,test,SART,1,go,138,138,25,90,go,9,10ptc,0,0,0,0,0,Omission,0,21,21,117,117,0,1.0,0,BBAA
3.8.10,Windows,91622,14:39:12,01,test,SART,1,nogo,139,139,25,90,nogo,3,16ptc,0,1,0,0,0,NoGo Success,0,22,22,117,117,0,1.0,0,BBAA
3.8.10,Windows,91622,14:39:12,01,test,SART,1,go,140,140,25,90,go,2,13ptc,0,0,0,0,0,Omission,0,22,22,118,118,0,1.0,0,BBAA
3.8.10,Windows,91622,14:39:12,01,test,SART,1,go,141,141,25,90,go,6,13ptc,0,0,0,0,0,Omission,0,22,22,119,119,0,1.0,0,BBAA
3.8.10,Windows,91622,14:39:12,01,test,SART,1,go,142,142,25,90,go,2,16ptc,0,0,0,0,0,Omission,0,22,22,120,120,0,0.0,0,BBAA
3.8.10,Windows,91622,14:39:12,01,test,SART,1,go,143,143,25,90,go,8,19ptc,0,0,0,0,0,Omission,0,22,22,121,121,0,0.0,0,BBAA
3.8.10,Windows,91622,14:39:12,01,test,SART,1,go,144,144,25,90,go,2,21ptc,0,0,0,0,0,Omission,0,22,22,122,122,0,0.0,0,BBAA
3.8.10,Windows,91622,14:39:12,01,test,SART,1,go,145,145,25,90,go,8,10ptc,0,0,0,0,0,Omission,0,22,22,123,123,0,0.0,0,BBAA
3.8.10,Windows,91622,14:39:12,01,test,SART,1,go,146,146,25,90,go,9,16ptc,0,0,0,0,0,Omission,0,22,22,124,124,0,0.0,0,BBAA
3.8.10,Windows,91622,14:39:12,01,test,SART,1,go,147,147,25,90,go,9,19ptc,0,0,0,0,0,Omission,0,22,22,125,125,0,0.0,0,BBAA
3.8.10,Windows,91622,14:39:12,01,test,SART,1,go,148,148,25,90,go,5,21ptc,0,0,0,0,0,Omission,0,22,22,126,126,0,0.0,0,BBAA
3.8.10,Windows,91622,14:39:12,01,test,SART,1,go,149,149,25,90,go,7,10ptc,0,0,0,0,0,Omission,0,22,22,127,127,0,0.0,0,BBAA
3.8.10,Windows,91622,14:39:12,01,test,SART,1,go,150,150,25,90,go,6,13ptc,0,0,0,0,0,Omission,0,22,22,128,128,0,0.0,0,BBAA
3.8.10,Windows,91622,14:39:12,01,test,SART,1,go,151,151,25,90,go,9,21ptc,0,0,0,0,0,Omission,0,22,22,129,129,0,0.0,0,BBAA
3.8.10,Windows,91622,14:39:12,01,test,SART,1,go,152,152,25,90,go,2,16ptc,0,0,0,0,0,Omission,0,22,22,130,130,0,1.0,0,BBAA
3.8.10,Windows,91622,14:39:12,01,test,SART,1,go,153,153,25,90,go,9,19ptc,0,0,0,0,0,Omission,0,22,22,131,131,0,1.0,0,BBAA
3.8.10,Windows,91622,14:39:12,01,test,SART,1,nogo,154,154,25,90,nogo,3,10ptc,0,1,0,0,0,NoGo Success,0,23,23,131,131,0,1.0,0,BBAA
3.8.10,Windows,91622,14:39:12,01,test,SART,1,go,155,155,25,90,go,8,13ptc,0,0,0,0,0,Omission,0,23,23,132,132,0,1.0,0,BBAA
3.8.10,Windows,91622,14:39:12,01,test,SART,1,go,156,156,25,90,go,9,16ptc,0,0,0,0,0,Omission,0,23,23,133,133,0,1.0,0,BBAA
3.8.10,Windows,91622,14:39:12,01,test,SART,1,go,157,157,25,90,go,8,19ptc,0,0,0,0,0,Omission,0,23,23,134,134,0,0.0,0,BBAA
3.8.10,Windows,91622,14:39:12,01,test,SART,1,go,158,158,25,90,go,1,10ptc,0,0,0,0,0,Omission,0,23,23,135,135,0,0.0,0,BBAA
3.8.10,Windows,91622,14:39:12,01,test,SART,1,go,159,159,25,90,go,7,13ptc,0,0,0,0,0,Omission,0,23,23,136,136,0,0.0,0,BBAA
3.8.10,Windows,91622,14:39:12,01,test,SART,1,go,160,160,25,90,go,7,21ptc,0,0,0,0,0,Omission,0,23,23,137,137,0,0.0,0,BBAA
3.8.10,Windows,91622,14:39:12,01,test,SART,1,go,161,161,25,90,go,4,10ptc,0,0,0,0,0,Omission,0,23,23,138,138,0,1.0,0,BBAA
3.8.10,Windows,91622,14:39:12,01,test,SART,1,go,162,162,25,90,go,7,13ptc,0,0,0,0,0,Omission,0,23,23,139,139,0,1.0,0,BBAA
3.8.10,Windows,91622,14:39:12,01,test,SART,1,nogo,163,163,25,90,nogo,3,21ptc,0,1,0,0,0,NoGo Success,0,24,24,139,139,0,1.0,0,BBAA
3.8.10,Windows,91622,14:39:12,01,test,SART,1,go,164,164,25,90,go,8,16ptc,0,0,0,0,0,Omission,0,24,24,140,140,0,1.0,0,BBAA
3.8.10,Windows,91622,14:39:12,01,test,SART,1,go,165,165,25,90,go,6,19ptc,0,0,0,0,0,Omission,0,24,24,141,141,0,1.0,0,BBAA
3.8.10,Windows,91622,14:39:12,01,test,SART,1,go,166,166,25,90,go,6,21ptc,0,0,0,0,0,Omission,0,24,24,142,142,0,0.0,0,BBAA
3.8.10,Windows,91622,14:39:12,01,test,SART,1,go,167,167,25,90,go,2,13ptc,space,1,1136,1136,3,Go Success,0,24,24,142,143,1,0.0,0,BBAA
3.8.10,Windows,91622,14:39:12,01,test,SART,1,go,168,168,25,90,go,4,16ptc,0,0,0,0,0,Omission,0,24,24,143,144,1,0.0,0,BBAA
3.8.10,Windows,91622,14:39:12,01,test,SART,1,go,169,169,25,90,go,2,19ptc,space,1,1059,1059,3,Go Success,0,24,24,143,145,2,0.0,0,BBAA
3.8.10,Windows,91622,14:39:12,01,test,SART,1,go,170,170,25,90,go,6,10ptc,0,0,0,0,0,Omission,0,24,24,144,146,2,0.0,0,BBAA
3.8.10,Windows,91622,14:39:12,01,test,SART,1,go,171,171,25,90,go,8,16ptc,space,1,998,998,3,Go Success,0,24,24,144,147,3,0.0,0,BBAA
3.8.10,Windows,91622,14:39:12,01,test,SART,1,go,172,172,25,90,go,8,10ptc,0,0,0,0,0,Omission,0,24,24,145,148,3,0.0,0,BBAA
3.8.10,Windows,91622,14:39:12,01,test,SART,1,go,173,173,25,90,go,5,19ptc,space,1,1145,1145,3,Go Success,0,24,24,145,149,4,0.0,0,BBAA
3.8.10,Windows,91622,14:39:12,01,test,SART,1,go,174,174,25,90,go,5,21ptc,space,1,956,956,3,Go Success,0,24,24,145,150,5,0.0,0,BBAA
3.8.10,Windows,91622,14:39:12,01,test,SART,1,go,175,175,25,90,go,6,13ptc,space,1,960,960,3,Go Success,0,24,24,145,151,6,0.0,0,BBAA
3.8.10,Windows,91622,14:39:12,01,test,SART,1,go,176,176,25,90,go,4,16ptc,space,1,1147,1147,3,Go Success,0,24,24,145,152,7,0.0,0,BBAA
3.8.10,Windows,91622,14:39:12,01,test,SART,1,go,177,177,25,90,go,1,13ptc,0,0,0,0,0,Omission,0,24,24,146,153,7,0.0,0,BBAA
3.8.10,Windows,91622,14:39:12,01,test,SART,1,go,178,178,25,90,go,7,19ptc,space,1,704,704,3,Go Success,0,24,24,146,154,8,0.0,0,BBAA
3.8.10,Windows,91622,14:39:12,01,test,SART,1,go,179,179,25,90,go,4,21ptc,space,1,1124,1124,3,Go Success,0,24,24,146,155,9,0.0,0,BBAA
3.8.10,Windows,91622,14:39:12,01,test,SART,1,go,180,180,25,90,go,4,10ptc,space,1,1146,1146,3,Go Success,0,24,24,146,156,10,0.0,0,BBAA
3.8.10,Windows,91622,14:39:12,01,test,SART,1,go,181,181,25,90,go,1,19ptc,0,0,0,0,0,Omission,0,24,24,147,157,10,0.0,0,BBAA
3.8.10,Windows,91622,14:39:12,01,test,SART,1,go,182,182,25,90,go,5,10ptc,space,1,706,706,3,Go Success,0,24,24,147,158,11,0.0,0,BBAA
3.8.10,Windows,91622,14:39:12,01,test,SART,1,go,183,183,25,90,go,6,16ptc,space,1,1089,1089,3,Go Success,0,24,24,147,159,12,0.0,0,BBAA
3.8.10,Windows,91622,14:39:12,01,test,SART,1,go,184,184,25,90,go,7,13ptc,0,0,0,0,0,Omission,0,24,24,148,160,12,0.0,0,BBAA
3.8.10,Windows,91622,14:39:12,01,test,SART,1,go,185,185,25,90,go,5,21ptc,0,0,0,0,0,Omission,0,24,24,149,161,12,0.0,0,BBAA
3.8.10,Windows,91622,14:39:12,01,test,SART,1,go,186,186,25,90,go,7,13ptc,space,1,708,708,3,Go Success,0,24,24,149,162,13,0.0,0,BBAA
3.8.10,Windows,91622,14:39:12,01,test,SART,1,go,187,187,25,90,go,2,16ptc,space,1,703,703,3,Go Success,0,24,24,149,163,14,0.0,0,BBAA
3.8.10,Windows,91622,14:39:12,01,test,SART,1,go,188,188,25,90,go,7,19ptc,space,1,1001,1001,3,Go Success,0,24,24,149,164,15,0.0,0,BBAA
3.8.10,Windows,91622,14:39:12,01,test,SART,1,go,189,189,25,90,go,8,10ptc,space,1,957,957,3,Go Success,0,24,24,149,165,16,0.0,0,BBAA
3.8.10,Windows,91622,14:39:12,01,test,SART,1,go,190,190,25,90,go,7,21ptc,space,1,1059,1059,3,Go Success,0,24,24,149,166,17,0.0,0,BBAA
3.8.10,Windows,91622,14:39:12,01,test,SART,1,go,191,191,25,90,go,1,10ptc,space,1,958,958,3,Go Success,0,24,24,149,167,18,0.0,0,BBAA
3.8.10,Windows,91622,14:39:12,01,test,SART,1,go,192,192,25,90,go,4,19ptc,space,1,955,955,3,Go Success,0,24,24,149,168,19,0.0,0,BBAA
3.8.10,Windows,91622,14:39:12,01,test,SART,1,go,193,193,25,90,go,7,16ptc,space,1,959,959,3,Go Success,0,24,24,149,169,20,0.0,0,BBAA
3.8.10,Windows,91622,14:39:12,01,test,SART,1,go,194,194,25,90,go,6,21ptc,space,1,956,956,3,Go Success,0,24,24,149,170,21,0.0,0,BBAA
3.8.10,Windows,91622,14:39:12,01,test,SART,1,go,195,195,25,90,go,2,13ptc,space,1,985,985,3,Go Success,0,24,24,149,171,22,0.0,0,BBAA
3.8.10,Windows,91622,14:39:12,01,test,SART,1,go,196,196,25,90,go,2,21ptc,space,1,1051,1051,3,Go Success,0,24,24,149,172,23,0.0,0,BBAA
3.8.10,Windows,91622,14:39:12,01,test,SART,1,go,197,197,25,90,go,8,16ptc,space,1,1105,1105,3,Go Success,0,24,24,149,173,24,0.0,0,BBAA
3.8.10,Windows,91622,14:39:12,01,test,SART,1,go,198,198,25,90,go,2,19ptc,space,1,994,994,3,Go Success,0,24,24,149,174,25,0.0,0,BBAA
3.8.10,Windows,91622,14:39:12,01,test,SART,1,go,199,199,25,90,go,2,13ptc,space,1,962,962,3,Go Success,0,24,24,149,175,26,1.0,0,BBAA
3.8.10,Windows,91622,14:39:12,01,test,SART,1,go,200,200,25,90,go,2,10ptc,space,1,1009,1009,3,Go Success,0,24,24,149,176,27,1.0,0,BBAA
3.8.10,Windows,91622,14:39:12,01,test,SART,1,nogo,201,201,25,90,nogo,3,10ptc,space,0,975,975,3,NoGo Failure,0,24,25,149,176,27,1.0,0,BBAA
3.8.10,Windows,91622,14:39:12,01,test,SART,1,go,202,202,25,90,go,7,16ptc,space,1,984,984,3,Go Success,0,24,25,149,177,28,1.0,0,BBAA
3.8.10,Windows,91622,14:39:12,01,test,SART,1,go,203,203,25,90,go,1,13ptc,space,1,1047,1047,3,Go Success,0,24,25,149,178,29,1.0,0,BBAA
3.8.10,Windows,91622,14:39:12,01,test,SART,1,go,204,204,25,90,go,4,19ptc,space,1,1108,1108,3,Go Success,0,24,25,149,179,30,0.0,0,BBAA
3.8.10,Windows,91622,14:39:12,01,test,SART,1,go,205,205,25,90,go,2,21ptc,space,1,992,992,3,Go Success,0,24,25,149,180,31,0.0,0,BBAA
3.8.10,Windows,91622,14:39:12,01,test,SART,1,go,206,206,25,90,go,6,13ptc,space,1,885,885,3,Go Success,0,24,25,149,181,32,0.0,0,BBAA
3.8.10,Windows,91622,14:39:12,01,test,SART,1,go,207,207,25,90,go,7,19ptc,space,1,985,985,3,Go Success,0,24,25,149,182,33,0.0,0,BBAA
3.8.10,Windows,91622,14:39:12,01,test,SART,1,go,208,208,25,90,go,6,10ptc,space,1,960,960,3,Go Success,0,24,25,149,183,34,0.0,0,BBAA
3.8.10,Windows,91622,14:39:12,01,test,SART,1,go,209,209,25,90,go,1,16ptc,space,1,954,954,3,Go Success,0,24,25,149,184,35,0.0,0,BBAA
3.8.10,Windows,91622,14:39:12,01,test,SART,1,go,210,210,25,90,go,9,21ptc,0,0,0,0,0,Omission,0,24,25,150,185,35,0.0,0,BBAA
3.8.10,Windows,91622,14:39:12,01,test,SART,1,go,211,211,25,90,go,8,16ptc,0,0,0,0,0,Omission,0,24,25,151,186,35,0.0,0,BBAA
3.8.10,Windows,91622,14:39:12,01,test,SART,1,go,212,212,25,90,go,1,19ptc,space,1,704,704,3,Go Success,0,24,25,151,187,36,0.0,0,BBAA
3.8.10,Windows,91622,14:39:12,01,test,SART,1,go,213,213,25,90,go,5,10ptc,space,1,1148,1148,3,Go Success,0,24,25,151,188,37,0.0,0,BBAA
3.8.10,Windows,91622,14:39:12,01,test,SART,1,go,214,214,25,90,go,1,21ptc,0,0,0,0,0,Omission,0,24,25,152,189,37,0.0,0,BBAA
3.8.10,Windows,91622,14:39:12,01,test,SART,1,go,215,215,25,90,go,6,13ptc,space,1,1009,1009,3,Go Success,0,24,25,152,190,38,0.0,0,BBAA
3.8.10,Windows,91622,14:39:12,01,test,SART,1,go,216,216,25,90,go,6,19ptc,space,1,987,987,3,Go Success,0,24,25,152,191,39,0.0,0,BBAA
3.8.10,Windows,91622,14:39:12,01,test,SART,1,go,217,217,25,90,go,4,10ptc,space,1,954,954,3,Go Success,0,24,25,152,192,40,0.0,0,BBAA
3.8.10,Windows,91622,14:39:12,01,test,SART,1,go,218,218,25,90,go,9,13ptc,space,1,980,980,3,Go Success,0,24,25,152,193,41,0.0,0,BBAA
3.8.10,Windows,91622,14:39:12,01,test,SART,1,go,219,219,25,90,go,7,16ptc,space,1,956,956,3,Go Success,0,24,25,152,194,42,0.0,0,BBAA
3.8.10,Windows,91622,14:39:12,01,test,SART,1,go,220,220,25,90,go,9,21ptc,space,1,957,957,3,Go Success,0,24,25,152,195,43,0.0,0,BBAA
3.8.10,Windows,91622,14:39:12,01,test,SART,1,go,221,221,25,90,go,5,16ptc,space,1,902,902,3,Go Success,0,24,25,152,196,44,0.0,0,BBAA
3.8.10,Windows,91622,14:39:12,01,test,SART,1,go,222,222,25,90,go,4,10ptc,space,1,859,859,3,Go Success,0,24,25,152,197,45,0.0,0,BBAA
3.8.10,Windows,91622,14:39:12,01,test,SART,1,go,223,223,25,90,go,7,21ptc,space,1,900,900,3,Go Success,0,24,25,152,198,46,0.0,0,BBAA
3.8.10,Windows,91622,14:39:12,01,test,SART,1,go,224,224,25,90,go,6,13ptc,space,1,889,889,3,Go Success,0,24,25,152,199,47,0.0,0,BBAA
3.8.10,Windows,91622,14:39:12,01,test,SART,1,go,225,225,25,90,go,2,19ptc,space,1,866,866,3,Go Success,0,24,25,152,200,48,0.0,0,BBAA
3.8.10,Windows,91622,14:39:12,01,test,SART,2,nogo,1,226,25,90,nogo,3,13ptc,0,1,0,0,0,NoGo Success,0,25,26,152,200,48,1.0,0,BBAA
3.8.10,Windows,91622,14:39:12,01,test,SART,2,go,2,227,25,90,go,7,16ptc,space,1,1016,1016,3,Go Success,0,25,26,152,201,49,1.0,0,BBAA
3.8.10,Windows,91622,14:39:12,01,test,SART,2,nogo,3,228,25,90,nogo,3,19ptc,space,0,974,974,3,NoGo Failure,0,25,27,152,201,49,1.0,0,BBAA
3.8.10,Windows,91622,14:39:12,01,test,SART,2,go,4,229,25,90,go,8,10ptc,0,0,0,0,0,Omission,0,25,27,153,202,49,1.0,0,BBAA
3.8.10,Windows,91622,14:39:12,01,test,SART,2,nogo,5,230,25,90,nogo,3,21ptc,space,0,703,703,3,NoGo Failure,0,25,28,153,202,49,1.0,0,BBAA
3.8.10,Windows,91622,14:39:12,01,test,SART,2,go,6,231,25,90,go,6,19ptc,space,1,1040,1040,3,Go Success,0,25,28,153,203,50,1.0,0,BBAA
3.8.10,Windows,91622,14:39:12,01,test,SART,2,go,7,232,25,90,go,7,10ptc,0,0,0,0,0,Omission,0,25,28,154,204,50,1.0,0,BBAA
3.8.10,Windows,91622,14:39:12,01,test,SART,2,go,8,233,25,90,go,8,21ptc,space,1,704,704,3,Go Success,0,25,28,154,205,51,0.0,0,BBAA
3.8.10,Windows,91622,14:39:12,01,test,SART,2,go,9,234,25,90,go,5,16ptc,0,0,0,0,0,Omission,0,25,28,155,206,51,0.0,0,BBAA
3.8.10,Windows,91622,14:39:12,01,test,SART,2,go,10,235,25,90,go,2,13ptc,space,1,704,704,3,Go Success,0,25,28,155,207,52,0.0,0,BBAA
3.8.10,Windows,91622,14:39:12,01,test,SART,2,go,11,236,25,90,go,1,21ptc,space,1,1038,1038,3,Go Success,0,25,28,155,208,53,0.0,0,BBAA
3.8.10,Windows,91622,14:39:12,01,test,SART,2,go,12,237,25,90,go,1,10ptc,space,1,1070,1070,3,Go Success,0,25,28,155,209,54,0.0,0,BBAA
3.8.10,Windows,91622,14:39:12,01,test,SART,2,go,13,238,25,90,go,4,19ptc,0,0,0,0,0,Omission,0,25,28,156,210,54,0.0,0,BBAA
3.8.10,Windows,91622,14:39:12,01,test,SART,2,go,14,239,25,90,go,8,16ptc,space,1,988,988,3,Go Success,0,25,28,156,211,55,0.0,0,BBAA
3.8.10,Windows,91622,14:39:12,01,test,SART,2,go,15,240,25,90,go,7,13ptc,space,1,992,992,3,Go Success,0,25,28,156,212,56,0.0,0,BBAA
3.8.10,Windows,91622,14:39:12,01,test,SART,2,go,16,241,25,90,go,8,19ptc,space,1,955,955,3,Go Success,0,25,28,156,213,57,0.0,0,BBAA
3.8.10,Windows,91622,14:39:12,01,test,SART,2,go,17,242,25,90,go,5,21ptc,space,1,956,956,3,Go Success,0,25,28,156,214,58,0.0,0,BBAA
3.8.10,Windows,91622,14:39:12,01,test,SART,2,go,18,243,25,90,go,5,10ptc,space,1,957,957,3,Go Success,0,25,28,156,215,59,0.0,0,BBAA
3.8.10,Windows,91622,14:39:12,01,test,SART,2,go,19,244,25,90,go,2,16ptc,space,1,898,898,3,Go Success,0,25,28,156,216,60,0.0,0,BBAA
3.8.10,Windows,91622,14:39:12,01,test,SART,2,go,20,245,25,90,go,1,13ptc,space,1,955,955,3,Go Success,0,25,28,156,217,61,1.0,0,BBAA
3.8.10,Windows,91622,14:39:12,01,test,SART,2,go,21,246,25,90,go,2,13ptc,space,1,960,960,3,Go Success,0,25,28,156,218,62,1.0,0,BBAA
3.8.10,Windows,91622,14:39:12,01,test,SART,2,nogo,22,247,25,90,nogo,3,21ptc,space,0,971,971,3,NoGo Failure,0,25,29,156,218,62,1.0,0,BBAA
3.8.10,Windows,91622,14:39:12,01,test,SART,2,go,23,248,25,90,go,5,16ptc,0,0,0,0,0,Omission,0,25,29,157,219,62,1.0,0,BBAA
3.8.10,Windows,91622,14:39:12,01,test,SART,2,go,24,249,25,90,go,1,19ptc,0,0,0,0,0,Omission,0,25,29,158,220,62,1.0,0,BBAA
3.8.10,Windows,91622,14:39:12,01,test,SART,2,go,25,250,25,90,go,5,10ptc,space,1,1057,1057,3,Go Success,0,25,29,158,221,63,0.0,0,BBAA
3.8.10,Windows,91622,14:39:12,01,test,SART,2,go,26,251,25,90,go,5,21ptc,space,1,1030,1030,3,Go Success,0,25,29,158,222,64,0.0,0,BBAA
3.8.10,Windows,91622,14:39:12,01,test,SART,2,go,27,252,25,90,go,8,13ptc,space,1,954,954,3,Go Success,0,25,29,158,223,65,0.0,0,BBAA
3.8.10,Windows,91622,14:39:12,01,test,SART,2,go,28,253,25,90,go,2,19ptc,space,1,986,986,3,Go Success,0,25,29,158,224,66,0.0,0,BBAA
3.8.10,Windows,91622,14:39:12,01,test,SART,2,go,29,254,25,90,go,9,10ptc,space,1,959,959,3,Go Success,0,25,29,158,225,67,0.0,0,BBAA
3.8.10,Windows,91622,14:39:12,01,test,SART,2,go,30,255,25,90,go,6,16ptc,space,1,956,956,3,Go Success,0,25,29,158,226,68,0.0,0,BBAA
3.8.10,Windows,91622,14:39:12,01,test,SART,2,go,31,256,25,90,go,8,13ptc,0,0,0,0,0,Omission,0,25,29,159,227,68,0.0,0,BBAA
3.8.10,Windows,91622,14:39:12,01,test,SART,2,go,32,257,25,90,go,1,21ptc,0,0,0,0,0,Omission,0,25,29,160,228,68,0.0,0,BBAA
3.8.10,Windows,91622,14:39:12,01,test,SART,2,go,33,258,25,90,go,8,16ptc,0,0,0,0,0,Omission,0,25,29,161,229,68,0.0,0,BBAA
3.8.10,Windows,91622,14:39:12,01,test,SART,2,go,34,259,25,90,go,9,19ptc,0,0,0,0,0,Omission,0,25,29,162,230,68,0.0,0,BBAA
3.8.10,Windows,91622,14:39:12,01,test,SART,2,go,35,260,25,90,go,8,10ptc,0,0,0,0,0,Omission,0,25,29,163,231,68,0.0,0,BBAA
3.8.10,Windows,91622,14:39:12,01,test,SART,2,go,36,261,25,90,go,5,13ptc,0,0,0,0,0,Omission,0,25,29,164,232,68,1.0,0,BBAA
3.8.10,Windows,91622,14:39:12,01,test,SART,2,go,37,262,25,90,go,9,16ptc,0,0,0,0,0,Omission,0,25,29,165,233,68,1.0,0,BBAA
3.8.10,Windows,91622,14:39:12,01,test,SART,2,nogo,38,263,25,90,nogo,3,21ptc,0,1,0,0,0,NoGo Success,0,26,30,165,233,68,1.0,0,BBAA
3.8.10,Windows,91622,14:39:12,01,test,SART,2,go,39,264,25,90,go,5,10ptc,0,0,0,0,0,Omission,0,26,30,166,234,68,1.0,0,BBAA
3.8.10,Windows,91622,14:39:12,01,test,SART,2,go,40,265,25,90,go,9,19ptc,0,0,0,0,0,Omission,0,26,30,167,235,68,1.0,0,BBAA
3.8.10,Windows,91622,14:39:12,01,test,SART,2,go,41,266,25,90,go,7,19ptc,0,0,0,0,0,Omission,0,26,30,168,236,68,0.0,0,BBAA
3.8.10,Windows,91622,14:39:12,01,test,SART,2,go,42,267,25,90,go,1,13ptc,0,0,0,0,0,Omission,0,26,30,169,237,68,0.0,0,BBAA
3.8.10,Windows,91622,14:39:12,01,test,SART,2,go,43,268,25,90,go,2,16ptc,0,0,0,0,0,Omission,0,26,30,170,238,68,0.0,0,BBAA
3.8.10,Windows,91622,14:39:12,01,test,SART,2,go,44,269,25,90,go,1,10ptc,0,0,0,0,0,Omission,0,26,30,171,239,68,1.0,0,BBAA
3.8.10,Windows,91622,14:39:12,01,test,SART,2,go,45,270,25,90,go,9,21ptc,0,0,0,0,0,Omission,0,26,30,172,240,68,1.0,0,BBAA
3.8.10,Windows,91622,14:39:12,01,test,SART,2,nogo,46,271,25,90,nogo,3,19ptc,0,1,0,0,0,NoGo Success,0,27,31,172,240,68,1.0,0,BBAA
3.8.10,Windows,91622,14:39:12,01,test,SART,2,go,47,272,25,90,go,5,16ptc,0,0,0,0,0,Omission,0,27,31,173,241,68,1.0,0,BBAA
3.8.10,Windows,91622,14:39:12,01,test,SART,2,go,48,273,25,90,go,7,10ptc,0,0,0,0,0,Omission,0,27,31,174,242,68,1.0,0,BBAA
3.8.10,Windows,91622,14:39:12,01,test,SART,2,go,49,274,25,90,go,8,21ptc,0,0,0,0,0,Omission,0,27,31,175,243,68,0.0,0,BBAA
3.8.10,Windows,91622,14:39:12,01,test,SART,2,go,50,275,25,90,go,9,13ptc,0,0,0,0,0,Omission,0,27,31,176,244,68,0.0,0,BBAA
3.8.10,Windows,91622,14:39:12,01,test,SART,2,go,51,276,25,90,go,9,19ptc,0,0,0,0,0,Omission,0,27,31,177,245,68,0.0,0,BBAA
3.8.10,Windows,91622,14:39:12,01,test,SART,2,go,52,277,25,90,go,2,13ptc,0,0,0,0,0,Omission,0,27,31,178,246,68,1.0,0,BBAA
3.8.10,Windows,91622,14:39:12,01,test,SART,2,go,53,278,25,90,go,8,21ptc,0,0,0,0,0,Omission,0,27,31,179,247,68,1.0,0,BBAA
3.8.10,Windows,91622,14:39:12,01,test,SART,2,nogo,54,279,25,90,nogo,3,10ptc,0,1,0,0,0,NoGo Success,0,28,32,179,247,68,1.0,0,BBAA
3.8.10,Windows,91622,14:39:12,01,test,SART,2,go,55,280,25,90,go,9,16ptc,0,0,0,0,0,Omission,0,28,32,180,248,68,1.0,0,BBAA
3.8.10,Windows,91622,14:39:12,01,test,SART,2,go,56,281,25,90,go,8,21ptc,0,0,0,0,0,Omission,0,28,32,181,249,68,1.0,0,BBAA
3.8.10,Windows,91622,14:39:12,01,test,SART,2,go,57,282,25,90,go,9,13ptc,0,0,0,0,0,Omission,0,28,32,182,250,68,0.0,0,BBAA
3.8.10,Windows,91622,14:39:12,01,test,SART,2,go,58,283,25,90,go,1,19ptc,0,0,0,0,0,Omission,0,28,32,183,251,68,0.0,0,BBAA
3.8.10,Windows,91622,14:39:12,01,test,SART,2,go,59,284,25,90,go,9,10ptc,0,0,0,0,0,Omission,0,28,32,184,252,68,0.0,0,BBAA
3.8.10,Windows,91622,14:39:12,01,test,SART,2,go,60,285,25,90,go,5,16ptc,0,0,0,0,0,Omission,0,28,32,185,253,68,0.0,0,BBAA
3.8.10,Windows,91622,14:39:12,01,test,SART,2,go,61,286,25,90,go,4,19ptc,0,0,0,0,0,Omission,0,28,32,186,254,68,0.0,0,BBAA
3.8.10,Windows,91622,14:39:12,01,test,SART,2,go,62,287,25,90,go,4,10ptc,0,0,0,0,0,Omission,0,28,32,187,255,68,0.0,0,BBAA
3.8.10,Windows,91622,14:39:12,01,test,SART,2,go,63,288,25,90,go,5,16ptc,0,0,0,0,0,Omission,0,28,32,188,256,68,0.0,0,BBAA
3.8.10,Windows,91622,14:39:12,01,test,SART,2,go,64,289,25,90,go,7,21ptc,0,0,0,0,0,Omission,0,28,32,189,257,68,0.0,0,BBAA
3.8.10,Windows,91622,14:39:12,01,test,SART,2,go,65,290,25,90,go,2,13ptc,0,0,0,0,0,Omission,0,28,32,190,258,68,0.0,0,BBAA
3.8.10,Windows,91622,14:39:12,01,test,SART,2,go,66,291,25,90,go,2,21ptc,0,0,0,0,0,Omission,0,28,32,191,259,68,0.0,0,BBAA
3.8.10,Windows,91622,14:39:12,01,test,SART,2,go,67,292,25,90,go,7,10ptc,0,0,0,0,0,Omission,0,28,32,192,260,68,0.0,0,BBAA
3.8.10,Windows,91622,14:39:12,01,test,SART,2,go,68,293,25,90,go,1,19ptc,0,0,0,0,0,Omission,0,28,32,193,261,68,0.0,0,BBAA
3.8.10,Windows,91622,14:39:12,01,test,SART,2,go,69,294,25,90,go,9,16ptc,0,0,0,0,0,Omission,0,28,32,194,262,68,0.0,0,BBAA
3.8.10,Windows,91622,14:39:12,01,test,SART,2,go,70,295,25,90,go,8,13ptc,0,0,0,0,0,Omission,0,28,32,195,263,68,0.0,0,BBAA
3.8.10,Windows,91622,14:39:12,01,test,SART,2,go,71,296,25,90,go,4,19ptc,0,0,0,0,0,Omission,0,28,32,196,264,68,0.0,0,BBAA
3.8.10,Windows,91622,14:39:12,01,test,SART,2,go,72,297,25,90,go,4,10ptc,0,0,0,0,0,Omission,0,28,32,197,265,68,0.0,0,BBAA
3.8.10,Windows,91622,14:39:12,01,test,SART,2,go,73,298,25,90,go,7,21ptc,0,0,0,0,0,Omission,0,28,32,198,266,68,0.0,0,BBAA
3.8.10,Windows,91622,14:39:12,01,test,SART,2,go,74,299,25,90,go,2,16ptc,0,0,0,0,0,Omission,0,28,32,199,267,68,0.0,0,BBAA
3.8.10,Windows,91622,14:39:12,01,test,SART,2,go,75,300,25,90,go,4,13ptc,0,0,0,0,0,Omission,0,28,32,200,268,68,0.0,0,BBAA
3.8.10,Windows,91622,14:39:12,01,test,SART,2,go,76,301,25,90,go,8,10ptc,0,0,0,0,0,Omission,0,28,32,201,269,68,0.0,0,BBAA
3.8.10,Windows,91622,14:39:12,01,test,SART,2,go,77,302,25,90,go,2,21ptc,0,0,0,0,0,Omission,0,28,32,202,270,68,0.0,0,BBAA
3.8.10,Windows,91622,14:39:12,01,test,SART,2,go,78,303,25,90,go,8,16ptc,0,0,0,0,0,Omission,0,28,32,203,271,68,0.0,0,BBAA
3.8.10,Windows,91622,14:39:12,01,test,SART,2,go,79,304,25,90,go,6,13ptc,0,0,0,0,0,Omission,0,28,32,204,272,68,0.0,0,BBAA
3.8.10,Windows,91622,14:39:12,01,test,SART,2,go,80,305,25,90,go,4,19ptc,0,0,0,0,0,Omission,0,28,32,205,273,68,0.0,0,BBAA
3.8.10,Windows,91622,14:39:12,01,test,SART,2,go,81,306,25,90,go,2,21ptc,0,0,0,0,0,Omission,0,28,32,206,274,68,1.0,0,BBAA
3.8.10,Windows,91622,14:39:12,01,test,SART,2,go,82,307,25,90,go,1,13ptc,0,0,0,0,0,Omission,0,28,32,207,275,68,1.0,0,BBAA
3.8.10,Windows,91622,14:39:12,01,test,SART,2,nogo,83,308,25,90,nogo,3,19ptc,0,1,0,0,0,NoGo Success,0,29,33,207,275,68,1.0,0,BBAA
3.8.10,Windows,91622,14:39:12,01,test,SART,2,go,84,309,25,90,go,7,10ptc,0,0,0,0,0,Omission,0,29,33,208,276,68,1.0,0,BBAA
3.8.10,Windows,91622,14:39:12,01,test,SART,2,go,85,310,25,90,go,7,16ptc,0,0,0,0,0,Omission,0,29,33,209,277,68,1.0,0,BBAA
3.8.10,Windows,91622,14:39:12,01,test,SART,2,go,86,311,25,90,go,8,21ptc,0,0,0,0,0,Omission,0,29,33,210,278,68,0.0,0,BBAA
3.8.10,Windows,91622,14:39:12,01,test,SART,2,go,87,312,25,90,go,4,16ptc,0,0,0,0,0,Omission,0,29,33,211,279,68,1.0,0,BBAA
3.8.10,Windows,91622,14:39:12,01,test,SART,2,go,88,313,25,90,go,1,13ptc,0,0,0,0,0,Omission,0,29,33,212,280,68,1.0,0,BBAA
3.8.10,Windows,91622,14:39:12,01,test,SART,2,nogo,89,314,25,90,nogo,3,10ptc,0,1,0,0,0,NoGo Success,0,30,34,212,280,68,1.0,0,BBAA
3.8.10,Windows,91622,14:39:12,01,test,SART,2,go,90,315,25,90,go,7,19ptc,0,0,0,0,0,Omission,0,30,34,213,281,68,1.0,0,BBAA
3.8.10,Windows,91622,14:39:12,01,test,SART,2,go,91,316,25,90,go,2,16ptc,0,0,0,0,0,Omission,0,30,34,214,282,68,1.0,0,BBAA
3.8.10,Windows,91622,14:39:12,01,test,SART,2,go,92,317,25,90,go,4,10ptc,0,0,0,0,0,Omission,0,30,34,215,283,68,0.0,0,BBAA
3.8.10,Windows,91622,14:39:12,01,test,SART,2,go,93,318,25,90,go,2,13ptc,0,0,0,0,0,Omission,0,30,34,216,284,68,0.0,0,BBAA
3.8.10,Windows,91622,14:39:12,01,test,SART,2,go,94,319,25,90,go,1,21ptc,0,0,0,0,0,Omission,0,30,34,217,285,68,0.0,0,BBAA
3.8.10,Windows,91622,14:39:12,01,test,SART,2,go,95,320,25,90,go,6,19ptc,0,0,0,0,0,Omission,0,30,34,218,286,68,0.0,0,BBAA
3.8.10,Windows,91622,14:39:12,01,test,SART,2,go,96,321,25,90,go,5,21ptc,0,0,0,0,0,Omission,0,30,34,219,287,68,0.0,0,BBAA
3.8.10,Windows,91622,14:39:12,01,test,SART,2,go,97,322,25,90,go,4,13ptc,0,0,0,0,0,Omission,0,30,34,220,288,68,0.0,0,BBAA
3.8.10,Windows,91622,14:39:12,01,test,SART,2,go,98,323,25,90,go,2,10ptc,0,0,0,0,0,Omission,0,30,34,221,289,68,0.0,0,BBAA
3.8.10,Windows,91622,14:39:12,01,test,SART,2,go,99,324,25,90,go,6,16ptc,0,0,0,0,0,Omission,0,30,34,222,290,68,0.0,0,BBAA
3.8.10,Windows,91622,14:39:12,01,test,SART,2,go,100,325,25,90,go,1,19ptc,0,0,0,0,0,Omission,0,30,34,223,291,68,0.0,0,BBAA
3.8.10,Windows,91622,14:39:12,01,test,SART,2,go,101,326,25,90,go,8,21ptc,0,0,0,0,0,Omission,0,30,34,224,292,68,0.0,0,BBAA
3.8.10,Windows,91622,14:39:12,01,test,SART,2,go,102,327,25,90,go,6,10ptc,0,0,0,0,0,Omission,0,30,34,225,293,68,0.0,0,BBAA
3.8.10,Windows,91622,14:39:12,01,test,SART,2,go,103,328,25,90,go,9,19ptc,0,0,0,0,0,Omission,0,30,34,226,294,68,0.0,0,BBAA
3.8.10,Windows,91622,14:39:12,01,test,SART,2,go,104,329,25,90,go,7,13ptc,0,0,0,0,0,Omission,0,30,34,227,295,68,0.0,0,BBAA
3.8.10,Windows,91622,14:39:12,01,test,SART,2,go,105,330,25,90,go,1,16ptc,0,0,0,0,0,Omission,0,30,34,228,296,68,1.0,0,BBAA
3.8.10,Windows,91622,14:39:12,01,test,SART,2,go,106,331,25,90,go,4,21ptc,0,0,0,0,0,Omission,0,30,34,229,297,68,1.0,0,BBAA
3.8.10,Windows,91622,14:39:12,01,test,SART,2,nogo,107,332,25,90,nogo,3,19ptc,0,1,0,0,0,NoGo Success,0,31,35,229,297,68,1.0,0,BBAA
3.8.10,Windows,91622,14:39:12,01,test,SART,2,nogo,108,333,25,90,nogo,3,16ptc,0,1,0,0,0,NoGo Success,0,32,36,229,297,68,1.0,0,BBAA
3.8.10,Windows,91622,14:39:12,01,test,SART,2,go,109,334,25,90,go,1,10ptc,0,0,0,0,0,Omission,0,32,36,230,298,68,1.0,0,BBAA
3.8.10,Windows,91622,14:39:12,01,test,SART,2,go,110,335,25,90,go,1,13ptc,0,0,0,0,0,Omission,0,32,36,231,299,68,1.0,0,BBAA
3.8.10,Windows,91622,14:39:12,01,test,SART,2,go,111,336,25,90,go,5,16ptc,0,0,0,0,0,Omission,0,32,36,232,300,68,1.0,0,BBAA
3.8.10,Windows,91622,14:39:12,01,test,SART,2,nogo,112,337,25,90,nogo,3,19ptc,0,1,0,0,0,NoGo Success,0,33,37,232,300,68,1.0,0,BBAA
3.8.10,Windows,91622,14:39:12,01,test,SART,2,nogo,113,338,25,90,nogo,3,21ptc,0,1,0,0,0,NoGo Success,0,34,38,232,300,68,1.0,0,BBAA
3.8.10,Windows,91622,14:39:12,01,test,SART,2,go,114,339,25,90,go,6,13ptc,0,0,0,0,0,Omission,0,34,38,233,301,68,1.0,0,BBAA
3.8.10,Windows,91622,14:39:12,01,test,SART,2,go,115,340,25,90,go,7,10ptc,0,0,0,0,0,Omission,0,34,38,234,302,68,1.0,0,BBAA
3.8.10,Windows,91622,14:39:12,01,test,SART,2,go,116,341,25,90,go,6,21ptc,0,0,0,0,0,Omission,0,34,38,235,303,68,0.0,0,BBAA
3.8.10,Windows,91622,14:39:12,01,test,SART,2,go,117,342,25,90,go,6,10ptc,0,0,0,0,0,Omission,0,34,38,236,304,68,0.0,0,BBAA
3.8.10,Windows,91622,14:39:12,01,test,SART,2,go,118,343,25,90,go,4,19ptc,0,0,0,0,0,Omission,0,34,38,237,305,68,0.0,0,BBAA
3.8.10,Windows,91622,14:39:12,01,test,SART,2,go,119,344,25,90,go,1,13ptc,0,0,0,0,0,Omission,0,34,38,238,306,68,0.0,0,BBAA
3.8.10,Windows,91622,14:39:12,01,test,SART,2,go,120,345,25,90,go,7,16ptc,0,0,0,0,0,Omission,0,34,38,239,307,68,0.0,0,BBAA
3.8.10,Windows,91622,14:39:12,01,test,SART,2,go,121,346,25,90,go,5,10ptc,0,0,0,0,0,Omission,0,34,38,240,308,68,0.0,0,BBAA
3.8.10,Windows,91622,14:39:12,01,test,SART,2,go,122,347,25,90,go,1,13ptc,0,0,0,0,0,Omission,0,34,38,241,309,68,0.0,0,BBAA
3.8.10,Windows,91622,14:39:12,01,test,SART,2,go,123,348,25,90,go,2,19ptc,0,0,0,0,0,Omission,0,34,38,242,310,68,0.0,0,BBAA
3.8.10,Windows,91622,14:39:12,01,test,SART,2,go,124,349,25,90,go,1,21ptc,0,0,0,0,0,Omission,0,34,38,243,311,68,0.0,0,BBAA
3.8.10,Windows,91622,14:39:12,01,test,SART,2,go,125,350,25,90,go,9,16ptc,0,0,0,0,0,Omission,0,34,38,244,312,68,0.0,0,BBAA
3.8.10,Windows,91622,14:39:12,01,test,SART,2,go,126,351,25,90,go,9,19ptc,0,0,0,0,0,Omission,0,34,38,245,313,68,0.0,0,BBAA
3.8.10,Windows,91622,14:39:12,01,test,SART,2,go,127,352,25,90,go,4,13ptc,0,0,0,0,0,Omission,0,34,38,246,314,68,1.0,0,BBAA
3.8.10,Windows,91622,14:39:12,01,test,SART,2,go,128,353,25,90,go,6,16ptc,0,0,0,0,0,Omission,0,34,38,247,315,68,1.0,0,BBAA
3.8.10,Windows,91622,14:39:12,01,test,SART,2,nogo,129,354,25,90,nogo,3,21ptc,0,1,0,0,0,NoGo Success,0,35,39,247,315,68,1.0,0,BBAA
3.8.10,Windows,91622,14:39:12,01,test,SART,2,go,130,355,25,90,go,6,10ptc,0,0,0,0,0,Omission,0,35,39,248,316,68,1.0,0,BBAA
3.8.10,Windows,91622,14:39:12,01,test,SART,2,go,131,356,25,90,go,5,19ptc,0,0,0,0,0,Omission,0,35,39,249,317,68,1.0,0,BBAA
3.8.10,Windows,91622,14:39:12,01,test,SART,2,go,132,357,25,90,go,2,21ptc,0,0,0,0,0,Omission,0,35,39,250,318,68,0.0,0,BBAA
3.8.10,Windows,91622,14:39:12,01,test,SART,2,go,133,358,25,90,go,8,16ptc,0,0,0,0,0,Omission,0,35,39,251,319,68,0.0,0,BBAA
3.8.10,Windows,91622,14:39:12,01,test,SART,2,go,134,359,25,90,go,6,10ptc,0,0,0,0,0,Omission,0,35,39,252,320,68,0.0,0,BBAA
3.8.10,Windows,91622,14:39:12,01,test,SART,2,go,135,360,25,90,go,4,13ptc,0,0,0,0,0,Omission,0,35,39,253,321,68,0.0,0,BBAA
3.8.10,Windows,91622,14:39:12,01,test,SART,2,go,136,361,25,90,go,4,19ptc,0,0,0,0,0,Omission,0,35,39,254,322,68,0.0,0,BBAA
3.8.10,Windows,91622,14:39:12,01,test,SART,2,go,137,362,25,90,go,7,13ptc,0,0,0,0,0,Omission,0,35,39,255,323,68,0.0,0,BBAA
3.8.10,Windows,91622,14:39:12,01,test,SART,2,go,138,363,25,90,go,7,21ptc,0,0,0,0,0,Omission,0,35,39,256,324,68,0.0,0,BBAA
3.8.10,Windows,91622,14:39:12,01,test,SART,2,go,139,364,25,90,go,9,16ptc,0,0,0,0,0,Omission,0,35,39,257,325,68,0.0,0,BBAA
3.8.10,Windows,91622,14:39:12,01,test,SART,2,go,140,365,25,90,go,4,10ptc,0,0,0,0,0,Omission,0,35,39,258,326,68,0.0,0,BBAA
3.8.10,Windows,91622,14:39:12,01,test,SART,2,go,141,366,25,90,go,8,19ptc,0,0,0,0,0,Omission,0,35,39,259,327,68,0.0,0,BBAA
3.8.10,Windows,91622,14:39:12,01,test,SART,2,go,142,367,25,90,go,2,13ptc,0,0,0,0,0,Omission,0,35,39,260,328,68,0.0,0,BBAA
3.8.10,Windows,91622,14:39:12,01,test,SART,2,go,143,368,25,90,go,6,21ptc,0,0,0,0,0,Omission,0,35,39,261,329,68,0.0,0,BBAA
3.8.10,Windows,91622,14:39:12,01,test,SART,2,go,144,369,25,90,go,6,10ptc,0,0,0,0,0,Omission,0,35,39,262,330,68,0.0,0,BBAA
3.8.10,Windows,91622,14:39:12,01,test,SART,2,go,145,370,25,90,go,9,16ptc,0,0,0,0,0,Omission,0,35,39,263,331,68,0.0,0,BBAA
3.8.10,Windows,91622,14:39:12,01,test,SART,2,go,146,371,25,90,go,9,10ptc,0,0,0,0,0,Omission,0,35,39,264,332,68,0.0,0,BBAA
3.8.10,Windows,91622,14:39:12,01,test,SART,2,go,147,372,25,90,go,8,16ptc,0,0,0,0,0,Omission,0,35,39,265,333,68,0.0,0,BBAA
3.8.10,Windows,91622,14:39:12,01,test,SART,2,go,148,373,25,90,go,6,13ptc,0,0,0,0,0,Omission,0,35,39,266,334,68,0.0,0,BBAA
3.8.10,Windows,91622,14:39:12,01,test,SART,2,go,149,374,25,90,go,7,19ptc,0,0,0,0,0,Omission,0,35,39,267,335,68,0.0,0,BBAA
3.8.10,Windows,91622,14:39:12,01,test,SART,2,go,150,375,25,90,go,2,21ptc,0,0,0,0,0,Omission,0,35,39,268,336,68,0.0,0,BBAA
3.8.10,Windows,91622,14:39:12,01,test,SART,2,go,151,376,25,90,go,4,16ptc,0,0,0,0,0,Omission,0,35,39,269,337,68,0.0,0,BBAA
3.8.10,Windows,91622,14:39:12,01,test,SART,2,go,152,377,25,90,go,9,10ptc,0,0,0,0,0,Omission,0,35,39,270,338,68,0.0,0,BBAA
3.8.10,Windows,91622,14:39:12,01,test,SART,2,go,153,378,25,90,go,5,21ptc,0,0,0,0,0,Omission,0,35,39,271,339,68,0.0,0,BBAA
3.8.10,Windows,91622,14:39:12,01,test,SART,2,go,154,379,25,90,go,5,19ptc,0,0,0,0,0,Omission,0,35,39,272,340,68,0.0,0,BBAA
3.8.10,Windows,91622,14:39:12,01,test,SART,2,go,155,380,25,90,go,1,13ptc,0,0,0,0,0,Omission,0,35,39,273,341,68,0.0,0,BBAA
3.8.10,Windows,91622,14:39:12,01,test,SART,2,go,156,381,25,90,go,9,21ptc,0,0,0,0,0,Omission,0,35,39,274,342,68,0.0,0,BBAA
3.8.10,Windows,91622,14:39:12,01,test,SART,2,go,157,382,25,90,go,4,19ptc,0,0,0,0,0,Omission,0,35,39,275,343,68,0.0,0,BBAA
3.8.10,Windows,91622,14:39:12,01,test,SART,2,go,158,383,25,90,go,7,16ptc,0,0,0,0,0,Omission,0,35,39,276,344,68,0.0,0,BBAA
3.8.10,Windows,91622,14:39:12,01,test,SART,2,go,159,384,25,90,go,2,10ptc,0,0,0,0,0,Omission,0,35,39,277,345,68,0.0,0,BBAA
3.8.10,Windows,91622,14:39:12,01,test,SART,2,go,160,385,25,90,go,7,13ptc,0,0,0,0,0,Omission,0,35,39,278,346,68,0.0,0,BBAA
3.8.10,Windows,91622,14:39:12,01,test,SART,2,go,161,386,25,90,go,8,21ptc,0,0,0,0,0,Omission,0,35,39,279,347,68,1.0,0,BBAA
3.8.10,Windows,91622,14:39:12,01,test,SART,2,go,162,387,25,90,go,8,19ptc,0,0,0,0,0,Omission,0,35,39,280,348,68,1.0,0,BBAA
3.8.10,Windows,91622,14:39:12,01,test,SART,2,nogo,163,388,25,90,nogo,3,16ptc,0,1,0,0,0,NoGo Success,0,36,40,280,348,68,1.0,0,BBAA
3.8.10,Windows,91622,14:39:12,01,test,SART,2,go,164,389,25,90,go,4,10ptc,0,0,0,0,0,Omission,0,36,40,281,349,68,1.0,0,BBAA
3.8.10,Windows,91622,14:39:12,01,test,SART,2,nogo,165,390,25,90,nogo,3,13ptc,0,1,0,0,0,NoGo Success,0,37,41,281,349,68,1.0,0,BBAA
3.8.10,Windows,91622,14:39:12,01,test,SART,2,go,166,391,25,90,go,9,10ptc,0,0,0,0,0,Omission,0,37,41,282,350,68,1.0,0,BBAA
3.8.10,Windows,91622,14:39:12,01,test,SART,2,go,167,392,25,90,go,5,19ptc,0,0,0,0,0,Omission,0,37,41,283,351,68,1.0,0,BBAA
3.8.10,Windows,91622,14:39:12,01,test,SART,2,go,168,393,25,90,go,5,13ptc,0,0,0,0,0,Omission,0,37,41,284,352,68,0.0,0,BBAA
3.8.10,Windows,91622,14:39:12,01,test,SART,2,go,169,394,25,90,go,2,16ptc,0,0,0,0,0,Omission,0,37,41,285,353,68,0.0,0,BBAA
3.8.10,Windows,91622,14:39:12,01,test,SART,2,go,170,395,25,90,go,2,21ptc,0,0,0,0,0,Omission,0,37,41,286,354,68,0.0,0,BBAA
3.8.10,Windows,91622,14:39:12,01,test,SART,2,go,171,396,25,90,go,6,19ptc,0,0,0,0,0,Omission,0,37,41,287,355,68,0.0,0,BBAA
3.8.10,Windows,91622,14:39:12,01,test,SART,2,go,172,397,25,90,go,9,16ptc,0,0,0,0,0,Omission,0,37,41,288,356,68,0.0,0,BBAA
3.8.10,Windows,91622,14:39:12,01,test,SART,2,go,173,398,25,90,go,2,10ptc,0,0,0,0,0,Omission,0,37,41,289,357,68,0.0,0,BBAA
3.8.10,Windows,91622,14:39:12,01,test,SART,2,go,174,399,25,90,go,1,13ptc,0,0,0,0,0,Omission,0,37,41,290,358,68,0.0,0,BBAA
3.8.10,Windows,91622,14:39:12,01,test,SART,2,go,175,400,25,90,go,6,21ptc,0,0,0,0,0,Omission,0,37,41,291,359,68,0.0,0,BBAA
3.8.10,Windows,91622,14:39:12,01,test,SART,2,go,176,401,25,90,go,6,21ptc,0,0,0,0,0,Omission,0,37,41,292,360,68,1.0,0,BBAA
3.8.10,Windows,91622,14:39:12,01,test,SART,2,go,177,402,25,90,go,4,10ptc,0,0,0,0,0,Omission,0,37,41,293,361,68,1.0,0,BBAA
3.8.10,Windows,91622,14:39:12,01,test,SART,2,nogo,178,403,25,90,nogo,3,19ptc,0,1,0,0,0,NoGo Success,0,38,42,293,361,68,1.0,0,BBAA
3.8.10,Windows,91622,14:39:12,01,test,SART,2,go,179,404,25,90,go,6,16ptc,0,0,0,0,0,Omission,0,38,42,294,362,68,1.0,0,BBAA
3.8.10,Windows,91622,14:39:12,01,test,SART,2,go,180,405,25,90,go,7,13ptc,0,0,0,0,0,Omission,0,38,42,295,363,68,1.0,0,BBAA
3.8.10,Windows,91622,14:39:12,01,test,SART,2,go,181,406,25,90,go,4,19ptc,0,0,0,0,0,Omission,0,38,42,296,364,68,0.0,0,BBAA
3.8.10,Windows,91622,14:39:12,01,test,SART,2,go,182,407,25,90,go,9,16ptc,0,0,0,0,0,Omission,0,38,42,297,365,68,0.0,0,BBAA
3.8.10,Windows,91622,14:39:12,01,test,SART,2,go,183,408,25,90,go,1,10ptc,0,0,0,0,0,Omission,0,38,42,298,366,68,0.0,0,BBAA
3.8.10,Windows,91622,14:39:12,01,test,SART,2,go,184,409,25,90,go,7,13ptc,0,0,0,0,0,Omission,0,38,42,299,367,68,0.0,0,BBAA
3.8.10,Windows,91622,14:39:12,01,test,SART,2,go,185,410,25,90,go,8,21ptc,0,0,0,0,0,Omission,0,38,42,300,368,68,0.0,0,BBAA
3.8.10,Windows,91622,14:39:12,01,test,SART,2,go,186,411,25,90,go,5,10ptc,0,0,0,0,0,Omission,0,38,42,301,369,68,0.0,0,BBAA
3.8.10,Windows,91622,14:39:12,01,test,SART,2,go,187,412,25,90,go,9,21ptc,0,0,0,0,0,Omission,0,38,42,302,370,68,0.0,0,BBAA
3.8.10,Windows,91622,14:39:12,01,test,SART,2,go,188,413,25,90,go,6,13ptc,0,0,0,0,0,Omission,0,38,42,303,371,68,0.0,0,BBAA
3.8.10,Windows,91622,14:39:12,01,test,SART,2,go,189,414,25,90,go,6,19ptc,0,0,0,0,0,Omission,0,38,42,304,372,68,0.0,0,BBAA
3.8.10,Windows,91622,14:39:12,01,test,SART,2,go,190,415,25,90,go,6,16ptc,0,0,0,0,0,Omission,0,38,42,305,373,68,0.0,0,BBAA
3.8.10,Windows,91622,14:39:12,01,test,SART,2,go,191,416,25,90,go,8,16ptc,0,0,0,0,0,Omission,0,38,42,306,374,68,0.0,0,BBAA
3.8.10,Windows,91622,14:39:12,01,test,SART,2,go,192,417,25,90,go,4,19ptc,0,0,0,0,0,Omission,0,38,42,307,375,68,0.0,0,BBAA
3.8.10,Windows,91622,14:39:12,01,test,SART,2,go,193,418,25,90,go,9,10ptc,0,0,0,0,0,Omission,0,38,42,308,376,68,0.0,0,BBAA
3.8.10,Windows,91622,14:39:12,01,test,SART,2,go,194,419,25,90,go,7,21ptc,0,0,0,0,0,Omission,0,38,42,309,377,68,0.0,0,BBAA
3.8.10,Windows,91622,14:39:12,01,test,SART,2,go,195,420,25,90,go,7,13ptc,0,0,0,0,0,Omission,0,38,42,310,378,68,0.0,0,BBAA
3.8.10,Windows,91622,14:39:12,01,test,SART,2,go,196,421,25,90,go,5,10ptc,0,0,0,0,0,Omission,0,38,42,311,379,68,0.0,0,BBAA
3.8.10,Windows,91622,14:39:12,01,test,SART,2,go,197,422,25,90,go,7,16ptc,0,0,0,0,0,Omission,0,38,42,312,380,68,1.0,0,BBAA
3.8.10,Windows,91622,14:39:12,01,test,SART,2,go,198,423,25,90,go,8,19ptc,0,0,0,0,0,Omission,0,38,42,313,381,68,1.0,0,BBAA
3.8.10,Windows,91622,14:39:12,01,test,SART,2,nogo,199,424,25,90,nogo,3,13ptc,0,1,0,0,0,NoGo Success,0,39,43,313,381,68,1.0,0,BBAA
3.8.10,Windows,91622,14:39:12,01,test,SART,2,go,200,425,25,90,go,1,21ptc,0,0,0,0,0,Omission,0,39,43,314,382,68,1.0,0,BBAA
3.8.10,Windows,91622,14:39:12,01,test,SART,2,go,201,426,25,90,go,8,13ptc,0,0,0,0,0,Omission,0,39,43,315,383,68,1.0,0,BBAA
3.8.10,Windows,91622,14:39:12,01,test,SART,2,go,202,427,25,90,go,2,21ptc,0,0,0,0,0,Omission,0,39,43,316,384,68,1.0,0,BBAA
3.8.10,Windows,91622,14:39:12,01,test,SART,2,go,203,428,25,90,go,6,16ptc,0,0,0,0,0,Omission,0,39,43,317,385,68,1.0,0,BBAA
3.8.10,Windows,91622,14:39:12,01,test,SART,2,nogo,204,429,25,90,nogo,3,10ptc,0,1,0,0,0,NoGo Success,0,40,44,317,385,68,1.0,0,BBAA
3.8.10,Windows,91622,14:39:12,01,test,SART,2,go,205,430,25,90,go,4,19ptc,0,0,0,0,0,Omission,0,40,44,318,386,68,1.0,0,BBAA
3.8.10,Windows,91622,14:39:12,01,test,SART,2,nogo,206,431,25,90,nogo,3,19ptc,0,1,0,0,0,NoGo Success,0,41,45,318,386,68,1.0,0,BBAA
3.8.10,Windows,91622,14:39:12,01,test,SART,2,go,207,432,25,90,go,5,16ptc,0,0,0,0,0,Omission,0,41,45,319,387,68,1.0,0,BBAA
3.8.10,Windows,91622,14:39:12,01,test,SART,2,go,208,433,25,90,go,4,10ptc,0,0,0,0,0,Omission,0,41,45,320,388,68,1.0,0,BBAA
3.8.10,Windows,91622,14:39:12,01,test,SART,2,go,209,434,25,90,go,4,13ptc,0,0,0,0,0,Omission,0,41,45,321,389,68,1.0,0,BBAA
3.8.10,Windows,91622,14:39:12,01,test,SART,2,nogo,210,435,25,90,nogo,3,21ptc,0,1,0,0,0,NoGo Success,0,42,46,321,389,68,1.0,0,BBAA
3.8.10,Windows,91622,14:39:12,01,test,SART,2,go,211,436,25,90,go,5,10ptc,0,0,0,0,0,Omission,0,42,46,322,390,68,1.0,0,BBAA
3.8.10,Windows,91622,14:39:12,01,test,SART,2,go,212,437,25,90,go,2,16ptc,0,0,0,0,0,Omission,0,42,46,323,391,68,1.0,0,BBAA
3.8.10,Windows,91622,14:39:12,01,test,SART,2,nogo,213,438,25,90,nogo,3,21ptc,0,1,0,0,0,NoGo Success,0,43,47,323,391,68,1.0,0,BBAA
3.8.10,Windows,91622,14:39:12,01,test,SART,2,go,214,439,25,90,go,5,13ptc,0,0,0,0,0,Omission,0,43,47,324,392,68,1.0,0,BBAA
3.8.10,Windows,91622,14:39:12,01,test,SART,2,go,215,440,25,90,go,1,19ptc,0,0,0,0,0,Omission,0,43,47,325,393,68,1.0,0,BBAA
3.8.10,Windows,91622,14:39:12,01,test,SART,2,go,216,441,25,90,go,5,10ptc,0,0,0,0,0,Omission,0,43,47,326,394,68,0.0,0,BBAA
3.8.10,Windows,91622,14:39:12,01,test,SART,2,go,217,442,25,90,go,9,13ptc,0,0,0,0,0,Omission,0,43,47,327,395,68,1.0,0,BBAA
3.8.10,Windows,91622,14:39:12,01,test,SART,2,go,218,443,25,90,go,6,19ptc,0,0,0,0,0,Omission,0,43,47,328,396,68,1.0,0,BBAA
3.8.10,Windows,91622,14:39:12,01,test,SART,2,nogo,219,444,25,90,nogo,3,16ptc,0,1,0,0,0,NoGo Success,0,44,48,328,396,68,1.0,0,BBAA
3.8.10,Windows,91622,14:39:12,01,test,SART,2,go,220,445,25,90,go,7,21ptc,0,0,0,0,0,Omission,0,44,48,329,397,68,1.0,0,BBAA
3.8.10,Windows,91622,14:39:12,01,test,SART,2,nogo,221,446,25,90,nogo,3,16ptc,0,1,0,0,0,NoGo Success,0,45,49,329,397,68,1.0,0,BBAA
3.8.10,Windows,91622,14:39:12,01,test,SART,2,go,222,447,25,90,go,1,10ptc,0,0,0,0,0,Omission,0,45,49,330,398,68,1.0,0,BBAA
3.8.10,Windows,91622,14:39:12,01,test,SART,2,go,223,448,25,90,go,6,19ptc,0,0,0,0,0,Omission,0,45,49,331,399,68,1.0,0,BBAA
3.8.10,Windows,91622,14:39:12,01,test,SART,2,nogo,224,449,25,90,nogo,3,13ptc,0,1,0,0,0,NoGo Success,0,46,50,331,399,68,1.0,0,BBAA
3.8.10,Windows,91622,14:39:12,01,test,SART,2,go,225,450,25,90,go,2,21ptc,0,0,0,0,0,Omission,0,46,50,332,400,68,1.0,0,BBAA
3.8.10,Windows,91622,14:39:12,01,test,SART,3,go,1,451,25,90,go,4,16ptc,0,0,0,0,0,Omission,0,46,50,333,401,68,1.0,0.9,BBAA
3.8.10,Windows,91622,14:39:12,01,test,SART,3,go,2,452,25,90,go,4,19ptc,0,0,0,0,0,Omission,0,46,50,334,402,68,1.0,0.9,BBAA
3.8.10,Windows,91622,14:39:12,01,test,SART,3,nogo,3,453,25,90,nogo,3,13ptc,0,1,0,0,0,NoGo Success,0,47,51,334,402,68,1.0,0.9,BBAA
3.8.10,Windows,91622,14:39:12,01,test,SART,3,go,4,454,25,90,go,9,21ptc,0,0,0,0,0,Omission,0,47,51,335,403,68,1.0,0.9,BBAA
3.8.10,Windows,91622,14:39:12,01,test,SART,3,go,5,455,25,90,go,8,10ptc,0,0,0,0,0,Omission,0,47,51,336,404,68,1.0,0.9,BBAA
3.8.10,Windows,91622,14:39:12,01,test,SART,3,go,6,456,25,90,go,7,19ptc,0,0,0,0,0,Omission,0,47,51,337,405,68,0.0,0.9,BBAA
3.8.10,Windows,91622,14:39:12,01,test,SART,3,go,7,457,25,90,go,7,16ptc,0,0,0,0,0,Omission,0,47,51,338,406,68,0.0,0.9,BBAA
3.8.10,Windows,91622,14:39:12,01,test,SART,3,go,8,458,25,90,go,5,10ptc,0,0,0,0,0,Omission,0,47,51,339,407,68,0.0,0.9,BBAA
3.8.10,Windows,91622,14:39:12,01,test,SART,3,go,9,459,25,90,go,7,13ptc,0,0,0,0,0,Omission,0,47,51,340,408,68,0.0,0.9,BBAA
3.8.10,Windows,91622,14:39:12,01,test,SART,3,go,10,460,25,90,go,8,21ptc,0,0,0,0,0,Omission,0,47,51,341,409,68,0.0,0.9,BBAA
3.8.10,Windows,91622,14:39:12,01,test,SART,3,go,11,461,25,90,go,1,21ptc,0,0,0,0,0,Omission,0,47,51,342,410,68,0.0,0.9,BBAA
3.8.10,Windows,91622,14:39:12,01,test,SART,3,go,12,462,25,90,go,2,10ptc,0,0,0,0,0,Omission,0,47,51,343,411,68,0.0,0.9,BBAA
3.8.10,Windows,91622,14:39:12,01,test,SART,3,go,13,463,25,90,go,8,19ptc,0,0,0,0,0,Omission,0,47,51,344,412,68,0.0,0.9,BBAA
3.8.10,Windows,91622,14:39:12,01,test,SART,3,go,14,464,25,90,go,7,16ptc,0,0,0,0,0,Omission,0,47,51,345,413,68,0.0,0.9,BBAA
3.8.10,Windows,91622,14:39:12,01,test,SART,3,go,15,465,25,90,go,7,13ptc,0,0,0,0,0,Omission,0,47,51,346,414,68,0.0,0.9,BBAA
3.8.10,Windows,91622,14:39:12,01,test,SART,3,go,16,466,25,90,go,2,19ptc,0,0,0,0,0,Omission,0,47,51,347,415,68,0.0,0.9,BBAA
3.8.10,Windows,91622,14:39:12,01,test,SART,3,go,17,467,25,90,go,9,10ptc,0,0,0,0,0,Omission,0,47,51,348,416,68,1.0,0.9,BBAA
3.8.10,Windows,91622,14:39:12,01,test,SART,3,go,18,468,25,90,go,4,21ptc,0,0,0,0,0,Omission,0,47,51,349,417,68,1.0,0.9,BBAA
3.8.10,Windows,91622,14:39:12,01,test,SART,3,nogo,19,469,25,90,nogo,3,16ptc,0,1,0,0,0,NoGo Success,0,48,52,349,417,68,1.0,0.9,BBAA
3.8.10,Windows,91622,14:39:12,01,test,SART,3,go,20,470,25,90,go,1,13ptc,0,0,0,0,0,Omission,0,48,52,350,418,68,1.0,0.9,BBAA
3.8.10,Windows,91622,14:39:12,01,test,SART,3,go,21,471,25,90,go,7,16ptc,0,0,0,0,0,Omission,0,48,52,351,419,68,1.0,0.9,BBAA
3.8.10,Windows,91622,14:39:12,01,test,SART,3,go,22,472,25,90,go,4,10ptc,0,0,0,0,0,Omission,0,48,52,352,420,68,0.0,0.9,BBAA
3.8.10,Windows,91622,14:39:12,01,test,SART,3,go,23,473,25,90,go,7,13ptc,0,0,0,0,0,Omission,0,48,52,353,421,68,0.0,0.9,BBAA
3.8.10,Windows,91622,14:39:12,01,test,SART,3,go,24,474,25,90,go,9,21ptc,0,0,0,0,0,Omission,0,48,52,354,422,68,0.0,0.9,BBAA
3.8.10,Windows,91622,14:39:12,01,test,SART,3,go,25,475,25,90,go,6,19ptc,0,0,0,0,0,Omission,0,48,52,355,423,68,0.0,0.9,BBAA
3.8.10,Windows,91622,14:39:12,01,test,SART,3,go,26,476,25,90,go,7,10ptc,0,0,0,0,0,Omission,0,48,52,356,424,68,0.0,0.9,BBAA
3.8.10,Windows,91622,14:39:12,01,test,SART,3,go,27,477,25,90,go,7,16ptc,0,0,0,0,0,Omission,0,48,52,357,425,68,0.0,0.9,BBAA
3.8.10,Windows,91622,14:39:12,01,test,SART,3,go,28,478,25,90,go,1,21ptc,0,0,0,0,0,Omission,0,48,52,358,426,68,0.0,0.9,BBAA
3.8.10,Windows,91622,14:39:12,01,test,SART,3,go,29,479,25,90,go,5,13ptc,0,0,0,0,0,Omission,0,48,52,359,427,68,0.0,0.9,BBAA
3.8.10,Windows,91622,14:39:12,01,test,SART,3,go,30,480,25,90,go,9,19ptc,0,0,0,0,0,Omission,0,48,52,360,428,68,0.0,0.9,BBAA
3.8.10,Windows,91622,14:39:12,01,test,SART,3,go,31,481,25,90,go,6,16ptc,0,0,0,0,0,Omission,0,48,52,361,429,68,0.0,0.9,BBAA
3.8.10,Windows,91622,14:39:12,01,test,SART,3,go,32,482,25,90,go,1,21ptc,0,0,0,0,0,Omission,0,48,52,362,430,68,0.0,0.9,BBAA
3.8.10,Windows,91622,14:39:12,01,test,SART,3,go,33,483,25,90,go,5,10ptc,0,0,0,0,0,Omission,0,48,52,363,431,68,1.0,0.9,BBAA
3.8.10,Windows,91622,14:39:12,01,test,SART,3,go,34,484,25,90,go,9,13ptc,0,0,0,0,0,Omission,0,48,52,364,432,68,1.0,0.9,BBAA
3.8.10,Windows,91622,14:39:12,01,test,SART,3,nogo,35,485,25,90,nogo,3,19ptc,0,1,0,0,0,NoGo Success,0,49,53,364,432,68,1.0,0.9,BBAA
3.8.10,Windows,91622,14:39:12,01,test,SART,3,go,36,486,25,90,go,9,21ptc,0,0,0,0,0,Omission,0,49,53,365,433,68,1.0,0.9,BBAA
3.8.10,Windows,91622,14:39:12,01,test,SART,3,go,37,487,25,90,go,4,19ptc,0,0,0,0,0,Omission,0,49,53,366,434,68,1.0,0.9,BBAA
3.8.10,Windows,91622,14:39:12,01,test,SART,3,go,38,488,25,90,go,8,16ptc,0,0,0,0,0,Omission,0,49,53,367,435,68,0.0,0.9,BBAA
3.8.10,Windows,91622,14:39:12,01,test,SART,3,go,39,489,25,90,go,9,10ptc,0,0,0,0,0,Omission,0,49,53,368,436,68,0.0,0.9,BBAA
3.8.10,Windows,91622,14:39:12,01,test,SART,3,go,40,490,25,90,go,4,13ptc,0,0,0,0,0,Omission,0,49,53,369,437,68,0.0,0.9,BBAA
3.8.10,Windows,91622,14:39:12,01,test,SART,3,go,41,491,25,90,go,1,13ptc,0,0,0,0,0,Omission,0,49,53,370,438,68,0.0,0.9,BBAA
3.8.10,Windows,91622,14:39:12,01,test,SART,3,go,42,492,25,90,go,6,19ptc,0,0,0,0,0,Omission,0,49,53,371,439,68,0.0,0.9,BBAA
3.8.10,Windows,91622,14:39:12,01,test,SART,3,go,43,493,25,90,go,6,21ptc,0,0,0,0,0,Omission,0,49,53,372,440,68,0.0,0.9,BBAA
3.8.10,Windows,91622,14:39:12,01,test,SART,3,go,44,494,25,90,go,1,10ptc,0,0,0,0,0,Omission,0,49,53,373,441,68,0.0,0.9,BBAA
3.8.10,Windows,91622,14:39:12,01,test,SART,3,go,45,495,25,90,go,5,16ptc,0,0,0,0,0,Omission,0,49,53,374,442,68,0.0,0.9,BBAA
3.8.10,Windows,91622,14:39:12,01,test,SART,3,go,46,496,25,90,go,8,21ptc,0,0,0,0,0,Omission,0,49,53,375,443,68,0.0,0.9,BBAA
3.8.10,Windows,91622,14:39:12,01,test,SART,3,go,47,497,25,90,go,7,10ptc,0,0,0,0,0,Omission,0,49,53,376,444,68,0.0,0.9,BBAA
3.8.10,Windows,91622,14:39:12,01,test,SART,3,go,48,498,25,90,go,1,13ptc,0,0,0,0,0,Omission,0,49,53,377,445,68,0.0,0.9,BBAA
3.8.10,Windows,91622,14:39:12,01,test,SART,3,go,49,499,25,90,go,9,16ptc,0,0,0,0,0,Omission,0,49,53,378,446,68,0.0,0.9,BBAA
3.8.10,Windows,91622,14:39:12,01,test,SART,3,go,50,500,25,90,go,8,19ptc,0,0,0,0,0,Omission,0,49,53,379,447,68,0.0,0.9,BBAA
3.8.10,Windows,91622,14:39:12,01,test,SART,3,go,51,501,25,90,go,9,10ptc,0,0,0,0,0,Omission,0,49,53,380,448,68,0.0,0.9,BBAA
3.8.10,Windows,91622,14:39:12,01,test,SART,3,go,52,502,25,90,go,8,13ptc,0,0,0,0,0,Omission,0,49,53,381,449,68,0.0,0.9,BBAA
3.8.10,Windows,91622,14:39:12,01,test,SART,3,go,53,503,25,90,go,6,16ptc,0,0,0,0,0,Omission,0,49,53,382,450,68,0.0,0.9,BBAA
3.8.10,Windows,91622,14:39:12,01,test,SART,3,go,54,504,25,90,go,7,21ptc,0,0,0,0,0,Omission,0,49,53,383,451,68,0.0,0.9,BBAA
3.8.10,Windows,91622,14:39:12,01,test,SART,3,go,55,505,25,90,go,6,19ptc,0,0,0,0,0,Omission,0,49,53,384,452,68,0.0,0.9,BBAA
3.8.10,Windows,91622,14:39:12,01,test,SART,3,go,56,506,25,90,go,5,16ptc,0,0,0,0,0,Omission,0,49,53,385,453,68,0.0,0.9,BBAA
3.8.10,Windows,91622,14:39:12,01,test,SART,3,go,57,507,25,90,go,5,13ptc,0,0,0,0,0,Omission,0,49,53,386,454,68,0.0,0.9,BBAA
3.8.10,Windows,91622,14:39:12,01,test,SART,3,go,58,508,25,90,go,5,21ptc,0,0,0,0,0,Omission,0,49,53,387,455,68,0.0,0.9,BBAA
3.8.10,Windows,91622,14:39:12,01,test,SART,3,go,59,509,25,90,go,4,10ptc,0,0,0,0,0,Omission,0,49,53,388,456,68,0.0,0.9,BBAA
3.8.10,Windows,91622,14:39:12,01,test,SART,3,go,60,510,25,90,go,5,19ptc,0,0,0,0,0,Omission,0,49,53,389,457,68,0.0,0.9,BBAA
3.8.10,Windows,91622,14:39:12,01,test,SART,3,go,61,511,25,90,go,8,16ptc,0,0,0,0,0,Omission,0,49,53,390,458,68,0.0,0.9,BBAA
3.8.10,Windows,91622,14:39:12,01,test,SART,3,go,62,512,25,90,go,9,19ptc,0,0,0,0,0,Omission,0,49,53,391,459,68,0.0,0.9,BBAA
3.8.10,Windows,91622,14:39:12,01,test,SART,3,go,63,513,25,90,go,7,21ptc,0,0,0,0,0,Omission,0,49,53,392,460,68,0.0,0.9,BBAA
3.8.10,Windows,91622,14:39:12,01,test,SART,3,go,64,514,25,90,go,6,13ptc,0,0,0,0,0,Omission,0,49,53,393,461,68,0.0,0.9,BBAA
3.8.10,Windows,91622,14:39:12,01,test,SART,3,go,65,515,25,90,go,5,10ptc,0,0,0,0,0,Omission,0,49,53,394,462,68,1.0,0.9,BBAA
3.8.10,Windows,91622,14:39:12,01,test,SART,3,go,66,516,25,90,go,4,16ptc,0,0,0,0,0,Omission,0,49,53,395,463,68,1.0,0.9,BBAA
3.8.10,Windows,91622,14:39:12,01,test,SART,3,nogo,67,517,25,90,nogo,3,19ptc,0,1,0,0,0,NoGo Success,0,50,54,395,463,68,1.0,0.9,BBAA
3.8.10,Windows,91622,14:39:12,01,test,SART,3,go,68,518,25,90,go,2,13ptc,0,0,0,0,0,Omission,0,50,54,396,464,68,1.0,0.9,BBAA
3.8.10,Windows,91622,14:39:12,01,test,SART,3,go,69,519,25,90,go,2,21ptc,0,0,0,0,0,Omission,0,50,54,397,465,68,1.0,0.9,BBAA
3.8.10,Windows,91622,14:39:12,01,test,SART,3,nogo,70,520,25,90,nogo,3,10ptc,0,1,0,0,0,NoGo Success,0,51,55,397,465,68,1.0,0.9,BBAA
3.8.10,Windows,91622,14:39:12,01,test,SART,3,go,71,521,25,90,go,4,13ptc,0,0,0,0,0,Omission,0,51,55,398,466,68,1.0,0.9,BBAA
3.8.10,Windows,91622,14:39:12,01,test,SART,3,go,72,522,25,90,go,6,16ptc,0,0,0,0,0,Omission,0,51,55,399,467,68,1.0,0.9,BBAA
3.8.10,Windows,91622,14:39:12,01,test,SART,3,go,73,523,25,90,go,5,10ptc,0,0,0,0,0,Omission,0,51,55,400,468,68,0.0,0.9,BBAA
3.8.10,Windows,91622,14:39:12,01,test,SART,3,go,74,524,25,90,go,6,19ptc,0,0,0,0,0,Omission,0,51,55,401,469,68,0.0,0.9,BBAA
3.8.10,Windows,91622,14:39:12,01,test,SART,3,go,75,525,25,90,go,9,21ptc,0,0,0,0,0,Omission,0,51,55,402,470,68,0.0,0.9,BBAA
3.8.10,Windows,91622,14:39:12,01,test,SART,3,go,76,526,25,90,go,8,21ptc,0,0,0,0,0,Omission,0,51,55,403,471,68,0.0,0.9,BBAA
3.8.10,Windows,91622,14:39:12,01,test,SART,3,go,77,527,25,90,go,1,19ptc,0,0,0,0,0,Omission,0,51,55,404,472,68,0.0,0.9,BBAA
3.8.10,Windows,91622,14:39:12,01,test,SART,3,go,78,528,25,90,go,6,16ptc,0,0,0,0,0,Omission,0,51,55,405,473,68,0.0,0.9,BBAA
3.8.10,Windows,91622,14:39:12,01,test,SART,3,go,79,529,25,90,go,6,13ptc,0,0,0,0,0,Omission,0,51,55,406,474,68,1.0,0.9,BBAA
3.8.10,Windows,91622,14:39:12,01,test,SART,3,go,80,530,25,90,go,5,10ptc,0,0,0,0,0,Omission,0,51,55,407,475,68,1.0,0.9,BBAA
3.8.10,Windows,91622,14:39:12,01,test,SART,3,nogo,81,531,25,90,nogo,3,13ptc,0,1,0,0,0,NoGo Success,0,52,56,407,475,68,1.0,0.9,BBAA
3.8.10,Windows,91622,14:39:12,01,test,SART,3,go,82,532,25,90,go,1,10ptc,0,0,0,0,0,Omission,0,52,56,408,476,68,1.0,0.9,BBAA
3.8.10,Windows,91622,14:39:12,01,test,SART,3,go,83,533,25,90,go,2,19ptc,0,0,0,0,0,Omission,0,52,56,409,477,68,1.0,0.9,BBAA
3.8.10,Windows,91622,14:39:12,01,test,SART,3,nogo,84,534,25,90,nogo,3,21ptc,0,1,0,0,0,NoGo Success,0,53,57,409,477,68,1.0,0.9,BBAA
3.8.10,Windows,91622,14:39:12,01,test,SART,3,go,85,535,25,90,go,2,16ptc,0,0,0,0,0,Omission,0,53,57,410,478,68,1.0,0.9,BBAA
3.8.10,Windows,91622,14:39:12,01,test,SART,3,go,86,536,25,90,go,1,21ptc,0,0,0,0,0,Omission,0,53,57,411,479,68,1.0,0.9,BBAA
3.8.10,Windows,91622,14:39:12,01,test,SART,3,go,87,537,25,90,go,5,10ptc,0,0,0,0,0,Omission,0,53,57,412,480,68,0.0,0.9,BBAA
3.8.10,Windows,91622,14:39:12,01,test,SART,3,go,88,538,25,90,go,4,13ptc,0,0,0,0,0,Omission,0,53,57,413,481,68,0.0,0.9,BBAA
3.8.10,Windows,91622,14:39:12,01,test,SART,3,go,89,539,25,90,go,1,19ptc,0,0,0,0,0,Omission,0,53,57,414,482,68,0.0,0.9,BBAA
3.8.10,Windows,91622,14:39:12,01,test,SART,3,go,90,540,25,90,go,9,16ptc,0,0,0,0,0,Omission,0,53,57,415,483,68,0.0,0.9,BBAA
3.8.10,Windows,91622,14:39:12,01,test,SART,3,go,91,541,25,90,go,4,13ptc,0,0,0,0,0,Omission,0,53,57,416,484,68,1.0,0.9,BBAA
3.8.10,Windows,91622,14:39:12,01,test,SART,3,go,92,542,25,90,go,9,10ptc,0,0,0,0,0,Omission,0,53,57,417,485,68,1.0,0.9,BBAA
3.8.10,Windows,91622,14:39:12,01,test,SART,3,nogo,93,543,25,90,nogo,3,21ptc,0,1,0,0,0,NoGo Success,0,54,58,417,485,68,1.0,0.9,BBAA
3.8.10,Windows,91622,14:39:12,01,test,SART,3,go,94,544,25,90,go,1,16ptc,0,0,0,0,0,Omission,0,54,58,418,486,68,1.0,0.9,BBAA
3.8.10,Windows,91622,14:39:12,01,test,SART,3,go,95,545,25,90,go,2,19ptc,0,0,0,0,0,Omission,0,54,58,419,487,68,1.0,0.9,BBAA
3.8.10,Windows,91622,14:39:12,01,test,SART,3,go,96,546,25,90,go,8,16ptc,0,0,0,0,0,Omission,0,54,58,420,488,68,0.0,0.9,BBAA
3.8.10,Windows,91622,14:39:12,01,test,SART,3,go,97,547,25,90,go,2,13ptc,0,0,0,0,0,Omission,0,54,58,421,489,68,0.0,0.9,BBAA
3.8.10,Windows,91622,14:39:12,01,test,SART,3,go,98,548,25,90,go,2,10ptc,0,0,0,0,0,Omission,0,54,58,422,490,68,0.0,0.9,BBAA
3.8.10,Windows,91622,14:39:12,01,test,SART,3,go,99,549,25,90,go,5,19ptc,0,0,0,0,0,Omission,0,54,58,423,491,68,0.0,0.9,BBAA
3.8.10,Windows,91622,14:39:12,01,test,SART,3,go,100,550,25,90,go,2,21ptc,0,0,0,0,0,Omission,0,54,58,424,492,68,0.0,0.9,BBAA
3.8.10,Windows,91622,14:39:12,01,test,SART,3,go,101,551,25,90,go,1,16ptc,0,0,0,0,0,Omission,0,54,58,425,493,68,0.0,0.9,BBAA
3.8.10,Windows,91622,14:39:12,01,test,SART,3,go,102,552,25,90,go,5,19ptc,0,0,0,0,0,Omission,0,54,58,426,494,68,0.0,0.9,BBAA
3.8.10,Windows,91622,14:39:12,01,test,SART,3,go,103,553,25,90,go,4,13ptc,0,0,0,0,0,Omission,0,54,58,427,495,68,0.0,0.9,BBAA
3.8.10,Windows,91622,14:39:12,01,test,SART,3,go,104,554,25,90,go,2,21ptc,0,0,0,0,0,Omission,0,54,58,428,496,68,0.0,0.9,BBAA
3.8.10,Windows,91622,14:39:12,01,test,SART,3,go,105,555,25,90,go,8,10ptc,0,0,0,0,0,Omission,0,54,58,429,497,68,0.0,0.9,BBAA
3.8.10,Windows,91622,14:39:12,01,test,SART,3,go,106,556,25,90,go,6,10ptc,0,0,0,0,0,Omission,0,54,58,430,498,68,0.0,0.9,BBAA
3.8.10,Windows,91622,14:39:12,01,test,SART,3,go,107,557,25,90,go,7,16ptc,0,0,0,0,0,Omission,0,54,58,431,499,68,0.0,0.9,BBAA
3.8.10,Windows,91622,14:39:12,01,test,SART,3,go,108,558,25,90,go,5,19ptc,0,0,0,0,0,Omission,0,54,58,432,500,68,1.0,0.9,BBAA
3.8.10,Windows,91622,14:39:12,01,test,SART,3,go,109,559,25,90,go,1,13ptc,0,0,0,0,0,Omission,0,54,58,433,501,68,1.0,0.9,BBAA
3.8.10,Windows,91622,14:39:12,01,test,SART,3,nogo,110,560,25,90,nogo,3,21ptc,0,1,0,0,0,NoGo Success,0,55,59,433,501,68,1.0,0.9,BBAA
3.8.10,Windows,91622,14:39:12,01,test,SART,3,nogo,111,561,25,90,nogo,3,21ptc,0,1,0,0,0,NoGo Success,0,56,60,433,501,68,1.0,0.9,BBAA
3.8.10,Windows,91622,14:39:12,01,test,SART,3,go,112,562,25,90,go,6,13ptc,0,0,0,0,0,Omission,0,56,60,434,502,68,1.0,0.9,BBAA
3.8.10,Windows,91622,14:39:12,01,test,SART,3,go,113,563,25,90,go,4,16ptc,0,0,0,0,0,Omission,0,56,60,435,503,68,1.0,0.9,BBAA
3.8.10,Windows,91622,14:39:12,01,test,SART,3,go,114,564,25,90,go,2,19ptc,0,0,0,0,0,Omission,0,56,60,436,504,68,0.0,0.9,BBAA
3.8.10,Windows,91622,14:39:12,01,test,SART,3,go,115,565,25,90,go,8,10ptc,0,0,0,0,0,Omission,0,56,60,437,505,68,0.0,0.9,BBAA
3.8.10,Windows,91622,14:39:12,01,test,SART,3,go,116,566,25,90,go,5,13ptc,0,0,0,0,0,Omission,0,56,60,438,506,68,1.0,0.9,BBAA
3.8.10,Windows,91622,14:39:12,01,test,SART,3,go,117,567,25,90,go,9,19ptc,0,0,0,0,0,Omission,0,56,60,439,507,68,1.0,0.9,BBAA
3.8.10,Windows,91622,14:39:12,01,test,SART,3,nogo,118,568,25,90,nogo,3,16ptc,0,1,0,0,0,NoGo Success,0,57,61,439,507,68,1.0,0.9,BBAA
3.8.10,Windows,91622,14:39:12,01,test,SART,3,go,119,569,25,90,go,4,21ptc,0,0,0,0,0,Omission,0,57,61,440,508,68,1.0,0.9,BBAA
3.8.10,Windows,91622,14:39:12,01,test,SART,3,go,120,570,25,90,go,5,10ptc,0,0,0,0,0,Omission,0,57,61,441,509,68,1.0,0.9,BBAA
3.8.10,Windows,91622,14:39:12,01,test,SART,3,go,121,571,25,90,go,8,19ptc,0,0,0,0,0,Omission,0,57,61,442,510,68,0.0,0.9,BBAA
3.8.10,Windows,91622,14:39:12,01,test,SART,3,go,122,572,25,90,go,6,16ptc,0,0,0,0,0,Omission,0,57,61,443,511,68,0.0,0.9,BBAA
3.8.10,Windows,91622,14:39:12,01,test,SART,3,go,123,573,25,90,go,6,21ptc,0,0,0,0,0,Omission,0,57,61,444,512,68,0.0,0.9,BBAA
3.8.10,Windows,91622,14:39:12,01,test,SART,3,go,124,574,25,90,go,6,10ptc,0,0,0,0,0,Omission,0,57,61,445,513,68,0.0,0.9,BBAA
3.8.10,Windows,91622,14:39:12,01,test,SART,3,go,125,575,25,90,go,7,13ptc,0,0,0,0,0,Omission,0,57,61,446,514,68,0.0,0.9,BBAA
3.8.10,Windows,91622,14:39:12,01,test,SART,3,go,126,576,25,90,go,6,13ptc,0,0,0,0,0,Omission,0,57,61,447,515,68,0.0,0.9,BBAA
3.8.10,Windows,91622,14:39:12,01,test,SART,3,go,127,577,25,90,go,7,21ptc,0,0,0,0,0,Omission,0,57,61,448,516,68,0.0,0.9,BBAA
3.8.10,Windows,91622,14:39:12,01,test,SART,3,go,128,578,25,90,go,5,10ptc,0,0,0,0,0,Omission,0,57,61,449,517,68,0.0,0.9,BBAA
3.8.10,Windows,91622,14:39:12,01,test,SART,3,go,129,579,25,90,go,6,19ptc,0,0,0,0,0,Omission,0,57,61,450,518,68,0.0,0.9,BBAA
3.8.10,Windows,91622,14:39:12,01,test,SART,3,go,130,580,25,90,go,7,16ptc,0,0,0,0,0,Omission,0,57,61,451,519,68,0.0,0.9,BBAA
3.8.10,Windows,91622,14:39:12,01,test,SART,3,go,131,581,25,90,go,1,19ptc,0,0,0,0,0,Omission,0,57,61,452,520,68,0.0,0.9,BBAA
3.8.10,Windows,91622,14:39:12,01,test,SART,3,go,132,582,25,90,go,8,16ptc,0,0,0,0,0,Omission,0,57,61,453,521,68,1.0,0.9,BBAA
3.8.10,Windows,91622,14:39:12,01,test,SART,3,go,133,583,25,90,go,7,10ptc,0,0,0,0,0,Omission,0,57,61,454,522,68,1.0,0.9,BBAA
3.8.10,Windows,91622,14:39:12,01,test,SART,3,nogo,134,584,25,90,nogo,3,13ptc,0,1,0,0,0,NoGo Success,0,58,62,454,522,68,1.0,0.9,BBAA
3.8.10,Windows,91622,14:39:12,01,test,SART,3,go,135,585,25,90,go,2,21ptc,0,0,0,0,0,Omission,0,58,62,455,523,68,1.0,0.9,BBAA
3.8.10,Windows,91622,14:39:12,01,test,SART,3,go,136,586,25,90,go,7,13ptc,0,0,0,0,0,Omission,0,58,62,456,524,68,1.0,0.9,BBAA
3.8.10,Windows,91622,14:39:12,01,test,SART,3,go,137,587,25,90,go,8,16ptc,0,0,0,0,0,Omission,0,58,62,457,525,68,1.0,0.9,BBAA
3.8.10,Windows,91622,14:39:12,01,test,SART,3,go,138,588,25,90,go,1,19ptc,0,0,0,0,0,Omission,0,58,62,458,526,68,1.0,0.9,BBAA
3.8.10,Windows,91622,14:39:12,01,test,SART,3,nogo,139,589,25,90,nogo,3,21ptc,0,1,0,0,0,NoGo Success,0,59,63,458,526,68,1.0,0.9,BBAA
3.8.10,Windows,91622,14:39:12,01,test,SART,3,go,140,590,25,90,go,7,10ptc,0,0,0,0,0,Omission,0,59,63,459,527,68,1.0,0.9,BBAA
3.8.10,Windows,91622,14:39:12,01,test,SART,3,go,141,591,25,90,go,9,13ptc,0,0,0,0,0,Omission,0,59,63,460,528,68,1.0,0.9,BBAA
3.8.10,Windows,91622,14:39:12,01,test,SART,3,go,142,592,25,90,go,1,19ptc,0,0,0,0,0,Omission,0,59,63,461,529,68,0.0,0.9,BBAA
3.8.10,Windows,91622,14:39:12,01,test,SART,3,go,143,593,25,90,go,1,16ptc,0,0,0,0,0,Omission,0,59,63,462,530,68,0.0,0.9,BBAA
3.8.10,Windows,91622,14:39:12,01,test,SART,3,go,144,594,25,90,go,4,10ptc,0,0,0,0,0,Omission,0,59,63,463,531,68,0.0,0.9,BBAA
3.8.10,Windows,91622,14:39:12,01,test,SART,3,go,145,595,25,90,go,4,21ptc,0,0,0,0,0,Omission,0,59,63,464,532,68,0.0,0.9,BBAA
3.8.10,Windows,91622,14:39:12,01,test,SART,3,go,146,596,25,90,go,4,13ptc,0,0,0,0,0,Omission,0,59,63,465,533,68,0.0,0.9,BBAA
3.8.10,Windows,91622,14:39:12,01,test,SART,3,go,147,597,25,90,go,4,19ptc,0,0,0,0,0,Omission,0,59,63,466,534,68,0.0,0.9,BBAA
3.8.10,Windows,91622,14:39:12,01,test,SART,3,go,148,598,25,90,go,8,10ptc,0,0,0,0,0,Omission,0,59,63,467,535,68,0.0,0.9,BBAA
3.8.10,Windows,91622,14:39:12,01,test,SART,3,go,149,599,25,90,go,7,21ptc,0,0,0,0,0,Omission,0,59,63,468,536,68,0.0,0.9,BBAA
3.8.10,Windows,91622,14:39:12,01,test,SART,3,go,150,600,25,90,go,9,16ptc,0,0,0,0,0,Omission,0,59,63,469,537,68,1.0,0.9,BBAA
3.8.10,Windows,91622,14:39:12,01,test,SART,3,go,151,601,25,90,go,4,13ptc,0,0,0,0,0,Omission,0,59,63,470,538,68,1.0,0.9,BBAA
3.8.10,Windows,91622,14:39:12,01,test,SART,3,nogo,152,602,25,90,nogo,3,21ptc,0,1,0,0,0,NoGo Success,0,60,64,470,538,68,1.0,0.9,BBAA
3.8.10,Windows,91622,14:39:12,01,test,SART,3,go,153,603,25,90,go,5,10ptc,0,0,0,0,0,Omission,0,60,64,471,539,68,1.0,0.9,BBAA
3.8.10,Windows,91622,14:39:12,01,test,SART,3,nogo,154,604,25,90,nogo,3,16ptc,0,1,0,0,0,NoGo Success,0,61,65,471,539,68,1.0,0.9,BBAA
3.8.10,Windows,91622,14:39:12,01,test,SART,3,go,155,605,25,90,go,6,19ptc,0,0,0,0,0,Omission,0,61,65,472,540,68,1.0,0.9,BBAA
3.8.10,Windows,91622,14:39:12,01,test,SART,3,go,156,606,25,90,go,4,21ptc,0,0,0,0,0,Omission,0,61,65,473,541,68,1.0,0.9,BBAA
3.8.10,Windows,91622,14:39:12,01,test,SART,3,go,157,607,25,90,go,2,10ptc,0,0,0,0,0,Omission,0,61,65,474,542,68,0.0,0.9,BBAA
3.8.10,Windows,91622,14:39:12,01,test,SART,3,go,158,608,25,90,go,2,16ptc,0,0,0,0,0,Omission,0,61,65,475,543,68,0.0,0.9,BBAA
3.8.10,Windows,91622,14:39:12,01,test,SART,3,go,159,609,25,90,go,6,13ptc,0,0,0,0,0,Omission,0,61,65,476,544,68,1.0,0.9,BBAA
3.8.10,Windows,91622,14:39:12,01,test,SART,3,go,160,610,25,90,go,6,19ptc,0,0,0,0,0,Omission,0,61,65,477,545,68,1.0,0.9,BBAA
3.8.10,Windows,91622,14:39:12,01,test,SART,3,nogo,161,611,25,90,nogo,3,13ptc,0,1,0,0,0,NoGo Success,0,62,66,477,545,68,1.0,0.9,BBAA
3.8.10,Windows,91622,14:39:12,01,test,SART,3,go,162,612,25,90,go,8,21ptc,0,0,0,0,0,Omission,0,62,66,478,546,68,1.0,0.9,BBAA
3.8.10,Windows,91622,14:39:12,01,test,SART,3,go,163,613,25,90,go,4,10ptc,0,0,0,0,0,Omission,0,62,66,479,547,68,1.0,0.9,BBAA
3.8.10,Windows,91622,14:39:12,01,test,SART,3,go,164,614,25,90,go,9,19ptc,0,0,0,0,0,Omission,0,62,66,480,548,68,0.0,0.9,BBAA
3.8.10,Windows,91622,14:39:12,01,test,SART,3,go,165,615,25,90,go,2,16ptc,0,0,0,0,0,Omission,0,62,66,481,549,68,0.0,0.9,BBAA
3.8.10,Windows,91622,14:39:12,01,test,SART,3,go,166,616,25,90,go,2,13ptc,0,0,0,0,0,Omission,0,62,66,482,550,68,0.0,0.9,BBAA
3.8.10,Windows,91622,14:39:12,01,test,SART,3,go,167,617,25,90,go,2,19ptc,0,0,0,0,0,Omission,0,62,66,483,551,68,0.0,0.9,BBAA
3.8.10,Windows,91622,14:39:12,01,test,SART,3,go,168,618,25,90,go,1,16ptc,0,0,0,0,0,Omission,0,62,66,484,552,68,0.0,0.9,BBAA
3.8.10,Windows,91622,14:39:12,01,test,SART,3,go,169,619,25,90,go,5,10ptc,0,0,0,0,0,Omission,0,62,66,485,553,68,0.0,0.9,BBAA
3.8.10,Windows,91622,14:39:12,01,test,SART,3,go,170,620,25,90,go,9,21ptc,0,0,0,0,0,Omission,0,62,66,486,554,68,0.0,0.9,BBAA
3.8.10,Windows,91622,14:39:12,01,test,SART,3,go,171,621,25,90,go,1,13ptc,0,0,0,0,0,Omission,0,62,66,487,555,68,1.0,0.9,BBAA
3.8.10,Windows,91622,14:39:12,01,test,SART,3,go,172,622,25,90,go,9,21ptc,0,0,0,0,0,Omission,0,62,66,488,556,68,1.0,0.9,BBAA
3.8.10,Windows,91622,14:39:12,01,test,SART,3,nogo,173,623,25,90,nogo,3,19ptc,0,1,0,0,0,NoGo Success,0,63,67,488,556,68,1.0,0.9,BBAA
3.8.10,Windows,91622,14:39:12,01,test,SART,3,go,174,624,25,90,go,2,10ptc,0,0,0,0,0,Omission,0,63,67,489,557,68,1.0,0.9,BBAA
3.8.10,Windows,91622,14:39:12,01,test,SART,3,go,175,625,25,90,go,7,16ptc,0,0,0,0,0,Omission,0,63,67,490,558,68,1.0,0.9,BBAA
3.8.10,Windows,91622,14:39:12,01,test,SART,3,nogo,176,626,25,90,nogo,3,13ptc,0,1,0,0,0,NoGo Success,0,64,68,490,558,68,1.0,0.9,BBAA
3.8.10,Windows,91622,14:39:12,01,test,SART,3,go,177,627,25,90,go,8,10ptc,0,0,0,0,0,Omission,0,64,68,491,559,68,1.0,0.9,BBAA
3.8.10,Windows,91622,14:39:12,01,test,SART,3,go,178,628,25,90,go,5,21ptc,0,0,0,0,0,Omission,0,64,68,492,560,68,1.0,0.9,BBAA
3.8.10,Windows,91622,14:39:12,01,test,SART,3,go,179,629,25,90,go,9,19ptc,0,0,0,0,0,Omission,0,64,68,493,561,68,0.0,0.9,BBAA
3.8.10,Windows,91622,14:39:12,01,test,SART,3,go,180,630,25,90,go,8,16ptc,0,0,0,0,0,Omission,0,64,68,494,562,68,0.0,0.9,BBAA
3.8.10,Windows,91622,14:39:12,01,test,SART,3,go,181,631,25,90,go,9,16ptc,0,0,0,0,0,Omission,0,64,68,495,563,68,0.0,0.9,BBAA
3.8.10,Windows,91622,14:39:12,01,test,SART,3,go,182,632,25,90,go,9,10ptc,0,0,0,0,0,Omission,0,64,68,496,564,68,0.0,0.9,BBAA
3.8.10,Windows,91622,14:39:12,01,test,SART,3,go,183,633,25,90,go,8,13ptc,0,0,0,0,0,Omission,0,64,68,497,565,68,0.0,0.9,BBAA
3.8.10,Windows,91622,14:39:12,01,test,SART,3,go,184,634,25,90,go,6,19ptc,0,0,0,0,0,Omission,0,64,68,498,566,68,1.0,0.9,BBAA
3.8.10,Windows,91622,14:39:12,01,test,SART,3,go,185,635,25,90,go,8,21ptc,0,0,0,0,0,Omission,0,64,68,499,567,68,1.0,0.9,BBAA
3.8.10,Windows,91622,14:39:12,01,test,SART,3,nogo,186,636,25,90,nogo,3,19ptc,0,1,0,0,0,NoGo Success,0,65,69,499,567,68,1.0,0.9,BBAA
3.8.10,Windows,91622,14:39:12,01,test,SART,3,go,187,637,25,90,go,2,16ptc,0,0,0,0,0,Omission,0,65,69,500,568,68,1.0,0.9,BBAA
3.8.10,Windows,91622,14:39:12,01,test,SART,3,go,188,638,25,90,go,1,10ptc,0,0,0,0,0,Omission,0,65,69,501,569,68,1.0,0.9,BBAA
3.8.10,Windows,91622,14:39:12,01,test,SART,3,go,189,639,25,90,go,7,21ptc,0,0,0,0,0,Omission,0,65,69,502,570,68,0.0,0.9,BBAA
3.8.10,Windows,91622,14:39:12,01,test,SART,3,go,190,640,25,90,go,4,13ptc,0,0,0,0,0,Omission,0,65,69,503,571,68,0.0,0.9,BBAA
3.8.10,Windows,91622,14:39:12,01,test,SART,3,go,191,641,25,90,go,6,16ptc,0,0,0,0,0,Omission,0,65,69,504,572,68,0.0,0.9,BBAA
3.8.10,Windows,91622,14:39:12,01,test,SART,3,go,192,642,25,90,go,8,10ptc,0,0,0,0,0,Omission,0,65,69,505,573,68,0.0,0.9,BBAA
3.8.10,Windows,91622,14:39:12,01,test,SART,3,go,193,643,25,90,go,4,13ptc,0,0,0,0,0,Omission,0,65,69,506,574,68,0.0,0.9,BBAA
3.8.10,Windows,91622,14:39:12,01,test,SART,3,go,194,644,25,90,go,8,21ptc,0,0,0,0,0,Omission,0,65,69,507,575,68,0.0,0.9,BBAA
3.8.10,Windows,91622,14:39:12,01,test,SART,3,go,195,645,25,90,go,2,19ptc,0,0,0,0,0,Omission,0,65,69,508,576,68,1.0,0.9,BBAA
3.8.10,Windows,91622,14:39:12,01,test,SART,3,go,196,646,25,90,go,6,16ptc,0,0,0,0,0,Omission,0,65,69,509,577,68,1.0,0.9,BBAA
3.8.10,Windows,91622,14:39:12,01,test,SART,3,nogo,197,647,25,90,nogo,3,10ptc,0,1,0,0,0,NoGo Success,0,66,70,509,577,68,1.0,0.9,BBAA
3.8.10,Windows,91622,14:39:12,01,test,SART,3,go,198,648,25,90,go,7,19ptc,0,0,0,0,0,Omission,0,66,70,510,578,68,1.0,0.9,BBAA
3.8.10,Windows,91622,14:39:12,01,test,SART,3,go,199,649,25,90,go,7,21ptc,0,0,0,0,0,Omission,0,66,70,511,579,68,1.0,0.9,BBAA
3.8.10,Windows,91622,14:39:12,01,test,SART,3,go,200,650,25,90,go,1,13ptc,0,0,0,0,0,Omission,0,66,70,512,580,68,1.0,0.9,BBAA
3.8.10,Windows,91622,14:39:12,01,test,SART,3,go,201,651,25,90,go,5,10ptc,0,0,0,0,0,Omission,0,66,70,513,581,68,1.0,0.9,BBAA
3.8.10,Windows,91622,14:39:12,01,test,SART,3,nogo,202,652,25,90,nogo,3,16ptc,0,1,0,0,0,NoGo Success,0,67,71,513,581,68,1.0,0.9,BBAA
3.8.10,Windows,91622,14:39:12,01,test,SART,3,go,203,653,25,90,go,7,13ptc,0,0,0,0,0,Omission,0,67,71,514,582,68,1.0,0.9,BBAA
3.8.10,Windows,91622,14:39:12,01,test,SART,3,go,204,654,25,90,go,4,19ptc,0,0,0,0,0,Omission,0,67,71,515,583,68,1.0,0.9,BBAA
3.8.10,Windows,91622,14:39:12,01,test,SART,3,go,205,655,25,90,go,9,21ptc,0,0,0,0,0,Omission,0,67,71,516,584,68,1.0,0.9,BBAA
3.8.10,Windows,91622,14:39:12,01,test,SART,3,go,206,656,25,90,go,9,19ptc,0,0,0,0,0,Omission,0,67,71,517,585,68,1.0,0.9,BBAA
3.8.10,Windows,91622,14:39:12,01,test,SART,3,nogo,207,657,25,90,nogo,3,13ptc,0,1,0,0,0,NoGo Success,0,68,72,517,585,68,1.0,0.9,BBAA
3.8.10,Windows,91622,14:39:12,01,test,SART,3,nogo,208,658,25,90,nogo,3,16ptc,0,1,0,0,0,NoGo Success,0,69,73,517,585,68,1.0,0.9,BBAA
3.8.10,Windows,91622,14:39:12,01,test,SART,3,go,209,659,25,90,go,5,10ptc,0,0,0,0,0,Omission,0,69,73,518,586,68,1.0,0.9,BBAA
3.8.10,Windows,91622,14:39:12,01,test,SART,3,go,210,660,25,90,go,8,21ptc,0,0,0,0,0,Omission,0,69,73,519,587,68,1.0,0.9,BBAA
3.8.10,Windows,91622,14:39:12,01,test,SART,3,go,211,661,25,90,go,2,16ptc,0,0,0,0,0,Omission,0,69,73,520,588,68,0.0,0.9,BBAA
3.8.10,Windows,91622,14:39:12,01,test,SART,3,go,212,662,25,90,go,1,13ptc,0,0,0,0,0,Omission,0,69,73,521,589,68,0.0,0.9,BBAA
3.8.10,Windows,91622,14:39:12,01,test,SART,3,go,213,663,25,90,go,2,21ptc,0,0,0,0,0,Omission,0,69,73,522,590,68,0.0,0.9,BBAA
3.8.10,Windows,91622,14:39:12,01,test,SART,3,go,214,664,25,90,go,1,19ptc,0,0,0,0,0,Omission,0,69,73,523,591,68,0.0,0.9,BBAA
3.8.10,Windows,91622,14:39:12,01,test,SART,3,go,215,665,25,90,go,4,10ptc,0,0,0,0,0,Omission,0,69,73,524,592,68,1.0,0.9,BBAA
3.8.10,Windows,91622,14:39:12,01,test,SART,3,go,216,666,25,90,go,5,19ptc,0,0,0,0,0,Omission,0,69,73,525,593,68,1.0,0.9,BBAA
3.8.10,Windows,91622,14:39:12,01,test,SART,3,nogo,217,667,25,90,nogo,3,10ptc,0,1,0,0,0,NoGo Success,0,70,74,525,593,68,1.0,0.9,BBAA
3.8.10,Windows,91622,14:39:12,01,test,SART,3,go,218,668,25,90,go,5,16ptc,0,0,0,0,0,Omission,0,70,74,526,594,68,1.0,0.9,BBAA
3.8.10,Windows,91622,14:39:12,01,test,SART,3,go,219,669,25,90,go,8,13ptc,0,0,0,0,0,Omission,0,70,74,527,595,68,1.0,0.9,BBAA
3.8.10,Windows,91622,14:39:12,01,test,SART,3,go,220,670,25,90,go,2,21ptc,0,0,0,0,0,Omission,0,70,74,528,596,68,1.0,0.9,BBAA
3.8.10,Windows,91622,14:39:12,01,test,SART,3,go,221,671,25,90,go,6,16ptc,0,0,0,0,0,Omission,0,70,74,529,597,68,1.0,0.9,BBAA
3.8.10,Windows,91622,14:39:12,01,test,SART,3,nogo,222,672,25,90,nogo,3,10ptc,0,1,0,0,0,NoGo Success,0,71,75,529,597,68,1.0,0.9,BBAA
3.8.10,Windows,91622,14:39:12,01,test,SART,3,go,223,673,25,90,go,1,21ptc,0,0,0,0,0,Omission,0,71,75,530,598,68,1.0,0.9,BBAA
3.8.10,Windows,91622,14:39:12,01,test,SART,3,go,224,674,25,90,go,2,13ptc,0,0,0,0,0,Omission,0,71,75,531,599,68,1.0,0.9,BBAA
3.8.10,Windows,91622,14:39:12,01,test,SART,3,go,225,675,25,90,go,9,19ptc,0,0,0,0,0,Omission,0,71,75,532,600,68,0.0,0.9,BBAA
3.8.10,Windows,91622,14:39:12,01,test,SART,4,go,1,676,25,90,go,9,19ptc,0,0,0,0,0,Omission,0,71,75,533,601,68,0.0,0.9,BBAA
3.8.10,Windows,91622,14:39:12,01,test,SART,4,nogo,2,677,25,90,nogo,3,13ptc,0,1,0,0,0,NoGo Success,0,72,76,533,601,68,0.0,0.9,BBAA
3.8.10,Windows,91622,14:39:12,01,test,SART,4,go,3,678,25,90,go,5,21ptc,0,0,0,0,0,Omission,0,72,76,534,602,68,0.0,0.9,BBAA
3.8.10,Windows,91622,14:39:12,01,test,SART,4,go,4,679,25,90,go,9,16ptc,0,0,0,0,0,Omission,0,72,76,535,603,68,0.0,0.9,BBAA
3.8.10,Windows,91622,14:39:12,01,test,SART,4,go,5,680,25,90,go,5,10ptc,0,0,0,0,0,Omission,0,72,76,536,604,68,0.0,0.9,BBAA
3.8.10,Windows,91622,14:39:12,01,test,SART,4,go,6,681,25,90,go,2,21ptc,0,0,0,0,0,Omission,0,72,76,537,605,68,0.0,0.9,BBAA
3.8.10,Windows,91622,14:39:12,01,test,SART,4,go,7,682,25,90,go,9,16ptc,0,0,0,0,0,Omission,0,72,76,538,606,68,0.0,0.9,BBAA
3.8.10,Windows,91622,14:39:12,01,test,SART,4,go,8,683,25,90,go,9,19ptc,0,0,0,0,0,Omission,0,72,76,539,607,68,0.0,0.9,BBAA
3.8.10,Windows,91622,14:39:12,01,test,SART,4,go,9,684,25,90,go,1,10ptc,0,0,0,0,0,Omission,0,72,76,540,608,68,0.0,0.9,BBAA
3.8.10,Windows,91622,14:39:12,01,test,SART,4,go,10,685,25,90,go,6,13ptc,0,0,0,0,0,Omission,0,72,76,541,609,68,0.0,0.9,BBAA
3.8.10,Windows,91622,14:39:12,01,test,SART,4,go,11,686,25,90,go,7,10ptc,0,0,0,0,0,Omission,0,72,76,542,610,68,0.0,0.9,BBAA
3.8.10,Windows,91622,14:39:12,01,test,SART,4,go,12,687,25,90,go,9,21ptc,0,0,0,0,0,Omission,0,72,76,543,611,68,0.0,0.9,BBAA
3.8.10,Windows,91622,14:39:12,01,test,SART,4,go,13,688,25,90,go,2,19ptc,0,0,0,0,0,Omission,0,72,76,544,612,68,0.0,0.9,BBAA
3.8.10,Windows,91622,14:39:12,01,test,SART,4,go,14,689,25,90,go,1,13ptc,0,0,0,0,0,Omission,0,72,76,545,613,68,0.0,0.9,BBAA
3.8.10,Windows,91622,14:39:12,01,test,SART,4,go,15,690,25,90,go,5,16ptc,0,0,0,0,0,Omission,0,72,76,546,614,68,0.0,0.9,BBAA
3.8.10,Windows,91622,14:39:12,01,test,SART,4,go,16,691,25,90,go,4,19ptc,0,0,0,0,0,Omission,0,72,76,547,615,68,0.0,0.9,BBAA
3.8.10,Windows,91622,14:39:12,01,test,SART,4,go,17,692,25,90,go,4,16ptc,0,0,0,0,0,Omission,0,72,76,548,616,68,0.0,0.9,BBAA
3.8.10,Windows,91622,14:39:12,01,test,SART,4,go,18,693,25,90,go,6,13ptc,0,0,0,0,0,Omission,0,72,76,549,617,68,0.0,0.9,BBAA
3.8.10,Windows,91622,14:39:12,01,test,SART,4,go,19,694,25,90,go,4,10ptc,0,0,0,0,0,Omission,0,72,76,550,618,68,0.0,0.9,BBAA
3.8.10,Windows,91622,14:39:12,01,test,SART,4,go,20,695,25,90,go,9,21ptc,0,0,0,0,0,Omission,0,72,76,551,619,68,0.0,0.9,BBAA
3.8.10,Windows,91622,14:39:12,01,test,SART,4,go,21,696,25,90,go,5,13ptc,0,0,0,0,0,Omission,0,72,76,552,620,68,0.0,0.9,BBAA
3.8.10,Windows,91622,14:39:12,01,test,SART,4,go,22,697,25,90,go,8,19ptc,0,0,0,0,0,Omission,0,72,76,553,621,68,0.0,0.9,BBAA
3.8.10,Windows,91622,14:39:12,01,test,SART,4,go,23,698,25,90,go,8,10ptc,0,0,0,0,0,Omission,0,72,76,554,622,68,0.0,0.9,BBAA
3.8.10,Windows,91622,14:39:12,01,test,SART,4,go,24,699,25,90,go,7,21ptc,0,0,0,0,0,Omission,0,72,76,555,623,68,0.0,0.9,BBAA
3.8.10,Windows,91622,14:39:12,01,test,SART,4,go,25,700,25,90,go,6,16ptc,0,0,0,0,0,Omission,0,72,76,556,624,68,0.0,0.9,BBAA
3.8.10,Windows,91622,14:39:12,01,test,SART,4,go,26,701,25,90,go,2,16ptc,0,0,0,0,0,Omission,0,72,76,557,625,68,0.0,0.9,BBAA
3.8.10,Windows,91622,14:39:12,01,test,SART,4,go,27,702,25,90,go,9,10ptc,0,0,0,0,0,Omission,0,72,76,558,626,68,1.0,0.9,BBAA
3.8.10,Windows,91622,14:39:12,01,test,SART,4,go,28,703,25,90,go,5,19ptc,0,0,0,0,0,Omission,0,72,76,559,627,68,1.0,0.9,BBAA
3.8.10,Windows,91622,14:39:12,01,test,SART,4,nogo,29,704,25,90,nogo,3,21ptc,0,1,0,0,0,NoGo Success,0,73,77,559,627,68,1.0,0.9,BBAA
3.8.10,Windows,91622,14:39:12,01,test,SART,4,go,30,705,25,90,go,2,13ptc,0,0,0,0,0,Omission,0,73,77,560,628,68,1.0,0.9,BBAA
3.8.10,Windows,91622,14:39:12,01,test,SART,4,go,31,706,25,90,go,9,19ptc,0,0,0,0,0,Omission,0,73,77,561,629,68,1.0,0.9,BBAA
3.8.10,Windows,91622,14:39:12,01,test,SART,4,go,32,707,25,90,go,6,13ptc,0,0,0,0,0,Omission,0,73,77,562,630,68,0.0,0.9,BBAA
3.8.10,Windows,91622,14:39:12,01,test,SART,4,go,33,708,25,90,go,7,10ptc,0,0,0,0,0,Omission,0,73,77,563,631,68,0.0,0.9,BBAA
3.8.10,Windows,91622,14:39:12,01,test,SART,4,go,34,709,25,90,go,1,21ptc,0,0,0,0,0,Omission,0,73,77,564,632,68,0.0,0.9,BBAA
3.8.10,Windows,91622,14:39:12,01,test,SART,4,go,35,710,25,90,go,1,16ptc,0,0,0,0,0,Omission,0,73,77,565,633,68,0.0,0.9,BBAA
3.8.10,Windows,91622,14:39:12,01,test,SART,4,go,36,711,25,90,go,7,16ptc,0,0,0,0,0,Omission,0,73,77,566,634,68,0.0,0.9,BBAA
3.8.10,Windows,91622,14:39:12,01,test,SART,4,go,37,712,25,90,go,9,21ptc,0,0,0,0,0,Omission,0,73,77,567,635,68,0.0,0.9,BBAA
3.8.10,Windows,91622,14:39:12,01,test,SART,4,go,38,713,25,90,go,2,10ptc,0,0,0,0,0,Omission,0,73,77,568,636,68,0.0,0.9,BBAA
3.8.10,Windows,91622,14:39:12,01,test,SART,4,go,39,714,25,90,go,7,13ptc,0,0,0,0,0,Omission,0,73,77,569,637,68,0.0,0.9,BBAA
3.8.10,Windows,91622,14:39:12,01,test,SART,4,go,40,715,25,90,go,6,19ptc,0,0,0,0,0,Omission,0,73,77,570,638,68,0.0,0.9,BBAA
3.8.10,Windows,91622,14:39:12,01,test,SART,4,go,41,716,25,90,go,2,13ptc,0,0,0,0,0,Omission,0,73,77,571,639,68,0.0,0.9,BBAA
3.8.10,Windows,91622,14:39:12,01,test,SART,4,go,42,717,25,90,go,7,21ptc,0,0,0,0,0,Omission,0,73,77,572,640,68,0.0,0.9,BBAA
3.8.10,Windows,91622,14:39:12,01,test,SART,4,go,43,718,25,90,go,7,16ptc,0,0,0,0,0,Omission,0,73,77,573,641,68,0.0,0.9,BBAA
3.8.10,Windows,91622,14:39:12,01,test,SART,4,go,44,719,25,90,go,6,10ptc,0,0,0,0,0,Omission,0,73,77,574,642,68,0.0,0.9,BBAA
3.8.10,Windows,91622,14:39:12,01,test,SART,4,go,45,720,25,90,go,9,19ptc,0,0,0,0,0,Omission,0,73,77,575,643,68,0.0,0.9,BBAA
3.8.10,Windows,91622,14:39:12,01,test,SART,4,go,46,721,25,90,go,4,19ptc,0,0,0,0,0,Omission,0,73,77,576,644,68,0.0,0.9,BBAA
3.8.10,Windows,91622,14:39:12,01,test,SART,4,go,47,722,25,90,go,6,21ptc,0,0,0,0,0,Omission,0,73,77,577,645,68,0.0,0.9,BBAA
3.8.10,Windows,91622,14:39:12,01,test,SART,4,go,48,723,25,90,go,7,10ptc,0,0,0,0,0,Omission,0,73,77,578,646,68,1.0,0.9,BBAA
3.8.10,Windows,91622,14:39:12,01,test,SART,4,go,49,724,25,90,go,4,13ptc,0,0,0,0,0,Omission,0,73,77,579,647,68,1.0,0.9,BBAA
3.8.10,Windows,91622,14:39:12,01,test,SART,4,nogo,50,725,25,90,nogo,3,16ptc,0,1,0,0,0,NoGo Success,0,74,78,579,647,68,1.0,0.9,BBAA
3.8.10,Windows,91622,14:39:12,01,test,SART,4,go,51,726,25,90,go,7,13ptc,0,0,0,0,0,Omission,0,74,78,580,648,68,1.0,0.9,BBAA
3.8.10,Windows,91622,14:39:12,01,test,SART,4,go,52,727,25,90,go,8,16ptc,0,0,0,0,0,Omission,0,74,78,581,649,68,1.0,0.9,BBAA
3.8.10,Windows,91622,14:39:12,01,test,SART,4,go,53,728,25,90,go,4,21ptc,0,0,0,0,0,Omission,0,74,78,582,650,68,0.0,0.9,BBAA
3.8.10,Windows,91622,14:39:12,01,test,SART,4,go,54,729,25,90,go,2,10ptc,0,0,0,0,0,Omission,0,74,78,583,651,68,0.0,0.9,BBAA
3.8.10,Windows,91622,14:39:12,01,test,SART,4,go,55,730,25,90,go,1,19ptc,0,0,0,0,0,Omission,0,74,78,584,652,68,0.0,0.9,BBAA
3.8.10,Windows,91622,14:39:12,01,test,SART,4,go,56,731,25,90,go,5,19ptc,0,0,0,0,0,Omission,0,74,78,585,653,68,0.0,0.9,BBAA
3.8.10,Windows,91622,14:39:12,01,test,SART,4,go,57,732,25,90,go,8,13ptc,0,0,0,0,0,Omission,0,74,78,586,654,68,0.0,0.9,BBAA
3.8.10,Windows,91622,14:39:12,01,test,SART,4,go,58,733,25,90,go,2,10ptc,0,0,0,0,0,Omission,0,74,78,587,655,68,0.0,0.9,BBAA
3.8.10,Windows,91622,14:39:12,01,test,SART,4,go,59,734,25,90,go,6,21ptc,0,0,0,0,0,Omission,0,74,78,588,656,68,0.0,0.9,BBAA
3.8.10,Windows,91622,14:39:12,01,test,SART,4,go,60,735,25,90,go,1,16ptc,0,0,0,0,0,Omission,0,74,78,589,657,68,0.0,0.9,BBAA
3.8.10,Windows,91622,14:39:12,01,test,SART,4,go,61,736,25,90,go,4,19ptc,0,0,0,0,0,Omission,0,74,78,590,658,68,1.0,0.9,BBAA
3.8.10,Windows,91622,14:39:12,01,test,SART,4,go,62,737,25,90,go,7,21ptc,0,0,0,0,0,Omission,0,74,78,591,659,68,1.0,0.9,BBAA
3.8.10,Windows,91622,14:39:12,01,test,SART,4,nogo,63,738,25,90,nogo,3,10ptc,0,1,0,0,0,NoGo Success,0,75,79,591,659,68,1.0,0.9,BBAA
3.8.10,Windows,91622,14:39:12,01,test,SART,4,go,64,739,25,90,go,9,16ptc,0,0,0,0,0,Omission,0,75,79,592,660,68,1.0,0.9,BBAA
3.8.10,Windows,91622,14:39:12,01,test,SART,4,go,65,740,25,90,go,2,13ptc,0,0,0,0,0,Omission,0,75,79,593,661,68,1.0,0.9,BBAA
3.8.10,Windows,91622,14:39:12,01,test,SART,4,go,66,741,25,90,go,7,10ptc,0,0,0,0,0,Omission,0,75,79,594,662,68,0.0,0.9,BBAA
3.8.10,Windows,91622,14:39:12,01,test,SART,4,go,67,742,25,90,go,2,13ptc,0,0,0,0,0,Omission,0,75,79,595,663,68,0.0,0.9,BBAA
3.8.10,Windows,91622,14:39:12,01,test,SART,4,go,68,743,25,90,go,1,16ptc,0,0,0,0,0,Omission,0,75,79,596,664,68,0.0,0.9,BBAA
3.8.10,Windows,91622,14:39:12,01,test,SART,4,go,69,744,25,90,go,9,21ptc,0,0,0,0,0,Omission,0,75,79,597,665,68,0.0,0.9,BBAA
3.8.10,Windows,91622,14:39:12,01,test,SART,4,go,70,745,25,90,go,5,19ptc,0,0,0,0,0,Omission,0,75,79,598,666,68,0.0,0.9,BBAA
3.8.10,Windows,91622,14:39:12,01,test,SART,4,go,71,746,25,90,go,1,10ptc,0,0,0,0,0,Omission,0,75,79,599,667,68,0.0,0.9,BBAA
3.8.10,Windows,91622,14:39:12,01,test,SART,4,go,72,747,25,90,go,7,16ptc,0,0,0,0,0,Omission,0,75,79,600,668,68,0.0,0.9,BBAA
3.8.10,Windows,91622,14:39:12,01,test,SART,4,go,73,748,25,90,go,2,13ptc,0,0,0,0,0,Omission,0,75,79,601,669,68,0.0,0.9,BBAA
3.8.10,Windows,91622,14:39:12,01,test,SART,4,go,74,749,25,90,go,5,21ptc,0,0,0,0,0,Omission,0,75,79,602,670,68,0.0,0.9,BBAA
3.8.10,Windows,91622,14:39:12,01,test,SART,4,go,75,750,25,90,go,9,19ptc,0,0,0,0,0,Omission,0,75,79,603,671,68,0.0,0.9,BBAA
3.8.10,Windows,91622,14:39:12,01,test,SART,4,go,76,751,25,90,go,7,16ptc,0,0,0,0,0,Omission,0,75,79,604,672,68,0.0,0.9,BBAA
3.8.10,Windows,91622,14:39:12,01,test,SART,4,go,77,752,25,90,go,9,13ptc,0,0,0,0,0,Omission,0,75,79,605,673,68,1.0,0.9,BBAA
3.8.10,Windows,91622,14:39:12,01,test,SART,4,go,78,753,25,90,go,6,19ptc,0,0,0,0,0,Omission,0,75,79,606,674,68,1.0,0.9,BBAA
3.8.10,Windows,91622,14:39:12,01,test,SART,4,nogo,79,754,25,90,nogo,3,10ptc,0,1,0,0,0,NoGo Success,0,76,80,606,674,68,1.0,0.9,BBAA
3.8.10,Windows,91622,14:39:12,01,test,SART,4,go,80,755,25,90,go,2,21ptc,0,0,0,0,0,Omission,0,76,80,607,675,68,1.0,0.9,BBAA
3.8.10,Windows,91622,14:39:12,01,test,SART,4,go,81,756,25,90,go,5,13ptc,0,0,0,0,0,Omission,0,76,80,608,676,68,1.0,0.9,BBAA
3.8.10,Windows,91622,14:39:12,01,test,SART,4,go,82,757,25,90,go,7,16ptc,0,0,0,0,0,Omission,0,76,80,609,677,68,0.0,0.9,BBAA
3.8.10,Windows,91622,14:39:12,01,test,SART,4,go,83,758,25,90,go,5,19ptc,0,0,0,0,0,Omission,0,76,80,610,678,68,0.0,0.9,BBAA
3.8.10,Windows,91622,14:39:12,01,test,SART,4,go,84,759,25,90,go,8,10ptc,0,0,0,0,0,Omission,0,76,80,611,679,68,1.0,0.9,BBAA
3.8.10,Windows,91622,14:39:12,01,test,SART,4,go,85,760,25,90,go,1,21ptc,0,0,0,0,0,Omission,0,76,80,612,680,68,1.0,0.9,BBAA
3.8.10,Windows,91622,14:39:12,01,test,SART,4,nogo,86,761,25,90,nogo,3,13ptc,0,1,0,0,0,NoGo Success,0,77,81,612,680,68,1.0,0.9,BBAA
3.8.10,Windows,91622,14:39:12,01,test,SART,4,go,87,762,25,90,go,1,21ptc,0,0,0,0,0,Omission,0,77,81,613,681,68,1.0,0.9,BBAA
3.8.10,Windows,91622,14:39:12,01,test,SART,4,go,88,763,25,90,go,8,10ptc,0,0,0,0,0,Omission,0,77,81,614,682,68,1.0,0.9,BBAA
3.8.10,Windows,91622,14:39:12,01,test,SART,4,go,89,764,25,90,go,8,16ptc,0,0,0,0,0,Omission,0,77,81,615,683,68,0.0,0.9,BBAA
3.8.10,Windows,91622,14:39:12,01,test,SART,4,go,90,765,25,90,go,8,19ptc,0,0,0,0,0,Omission,0,77,81,616,684,68,0.0,0.9,BBAA
3.8.10,Windows,91622,14:39:12,01,test,SART,4,go,91,766,25,90,go,6,16ptc,0,0,0,0,0,Omission,0,77,81,617,685,68,1.0,0.9,BBAA
3.8.10,Windows,91622,14:39:12,01,test,SART,4,go,92,767,25,90,go,1,19ptc,0,0,0,0,0,Omission,0,77,81,618,686,68,1.0,0.9,BBAA
3.8.10,Windows,91622,14:39:12,01,test,SART,4,nogo,93,768,25,90,nogo,3,21ptc,0,1,0,0,0,NoGo Success,0,78,82,618,686,68,1.0,0.9,BBAA
3.8.10,Windows,91622,14:39:12,01,test,SART,4,go,94,769,25,90,go,8,10ptc,0,0,0,0,0,Omission,0,78,82,619,687,68,1.0,0.9,BBAA
3.8.10,Windows,91622,14:39:12,01,test,SART,4,go,95,770,25,90,go,8,13ptc,0,0,0,0,0,Omission,0,78,82,620,688,68,1.0,0.9,BBAA
3.8.10,Windows,91622,14:39:12,01,test,SART,4,go,96,771,25,90,go,2,16ptc,0,0,0,0,0,Omission,0,78,82,621,689,68,0.0,0.9,BBAA
3.8.10,Windows,91622,14:39:12,01,test,SART,4,go,97,772,25,90,go,4,19ptc,0,0,0,0,0,Omission,0,78,82,622,690,68,0.0,0.9,BBAA
3.8.10,Windows,91622,14:39:12,01,test,SART,4,go,98,773,25,90,go,9,10ptc,0,0,0,0,0,Omission,0,78,82,623,691,68,0.0,0.9,BBAA
3.8.10,Windows,91622,14:39:12,01,test,SART,4,go,99,774,25,90,go,4,13ptc,0,0,0,0,0,Omission,0,78,82,624,692,68,0.0,0.9,BBAA
3.8.10,Windows,91622,14:39:12,01,test,SART,4,go,100,775,25,90,go,8,21ptc,0,0,0,0,0,Omission,0,78,82,625,693,68,0.0,0.9,BBAA
3.8.10,Windows,91622,14:39:12,01,test,SART,4,go,101,776,25,90,go,5,10ptc,0,0,0,0,0,Omission,0,78,82,626,694,68,0.0,0.9,BBAA
3.8.10,Windows,91622,14:39:12,01,test,SART,4,go,102,777,25,90,go,6,19ptc,0,0,0,0,0,Omission,0,78,82,627,695,68,0.0,0.9,BBAA
3.8.10,Windows,91622,14:39:12,01,test,SART,4,go,103,778,25,90,go,8,13ptc,0,0,0,0,0,Omission,0,78,82,628,696,68,0.0,0.9,BBAA
3.8.10,Windows,91622,14:39:12,01,test,SART,4,go,104,779,25,90,go,7,21ptc,0,0,0,0,0,Omission,0,78,82,629,697,68,0.0,0.9,BBAA
3.8.10,Windows,91622,14:39:12,01,test,SART,4,go,105,780,25,90,go,2,16ptc,0,0,0,0,0,Omission,0,78,82,630,698,68,0.0,0.9,BBAA
3.8.10,Windows,91622,14:39:12,01,test,SART,4,go,106,781,25,90,go,6,16ptc,0,0,0,0,0,Omission,0,78,82,631,699,68,1.0,0.9,BBAA
3.8.10,Windows,91622,14:39:12,01,test,SART,4,go,107,782,25,90,go,8,10ptc,0,0,0,0,0,Omission,0,78,82,632,700,68,1.0,0.9,BBAA
3.8.10,Windows,91622,14:39:12,01,test,SART,4,nogo,108,783,25,90,nogo,3,19ptc,0,1,0,0,0,NoGo Success,0,79,83,632,700,68,1.0,0.9,BBAA
3.8.10,Windows,91622,14:39:12,01,test,SART,4,go,109,784,25,90,go,4,21ptc,0,0,0,0,0,Omission,0,79,83,633,701,68,1.0,0.9,BBAA
3.8.10,Windows,91622,14:39:12,01,test,SART,4,nogo,110,785,25,90,nogo,3,13ptc,0,1,0,0,0,NoGo Success,0,80,84,633,701,68,1.0,0.9,BBAA
3.8.10,Windows,91622,14:39:12,01,test,SART,4,nogo,111,786,25,90,nogo,3,19ptc,0,1,0,0,0,NoGo Success,0,81,85,633,701,68,1.0,0.9,BBAA
3.8.10,Windows,91622,14:39:12,01,test,SART,4,go,112,787,25,90,go,8,16ptc,0,0,0,0,0,Omission,0,81,85,634,702,68,1.0,0.9,BBAA
3.8.10,Windows,91622,14:39:12,01,test,SART,4,go,113,788,25,90,go,9,13ptc,0,0,0,0,0,Omission,0,81,85,635,703,68,1.0,0.9,BBAA
3.8.10,Windows,91622,14:39:12,01,test,SART,4,go,114,789,25,90,go,1,21ptc,0,0,0,0,0,Omission,0,81,85,636,704,68,1.0,0.9,BBAA
3.8.10,Windows,91622,14:39:12,01,test,SART,4,nogo,115,790,25,90,nogo,3,10ptc,0,1,0,0,0,NoGo Success,0,82,86,636,704,68,1.0,0.9,BBAA
3.8.10,Windows,91622,14:39:12,01,test,SART,4,nogo,116,791,25,90,nogo,3,21ptc,0,1,0,0,0,NoGo Success,0,83,87,636,704,68,1.0,0.9,BBAA
3.8.10,Windows,91622,14:39:12,01,test,SART,4,go,117,792,25,90,go,8,19ptc,0,0,0,0,0,Omission,0,83,87,637,705,68,1.0,0.9,BBAA
3.8.10,Windows,91622,14:39:12,01,test,SART,4,go,118,793,25,90,go,8,13ptc,0,0,0,0,0,Omission,0,83,87,638,706,68,1.0,0.9,BBAA
3.8.10,Windows,91622,14:39:12,01,test,SART,4,go,119,794,25,90,go,2,10ptc,0,0,0,0,0,Omission,0,83,87,639,707,68,0.0,0.9,BBAA
3.8.10,Windows,91622,14:39:12,01,test,SART,4,go,120,795,25,90,go,9,16ptc,0,0,0,0,0,Omission,0,83,87,640,708,68,0.0,0.9,BBAA
3.8.10,Windows,91622,14:39:12,01,test,SART,4,go,121,796,25,90,go,7,21ptc,0,0,0,0,0,Omission,0,83,87,641,709,68,0.0,0.9,BBAA
3.8.10,Windows,91622,14:39:12,01,test,SART,4,go,122,797,25,90,go,9,16ptc,0,0,0,0,0,Omission,0,83,87,642,710,68,0.0,0.9,BBAA
3.8.10,Windows,91622,14:39:12,01,test,SART,4,go,123,798,25,90,go,4,19ptc,0,0,0,0,0,Omission,0,83,87,643,711,68,0.0,0.9,BBAA
3.8.10,Windows,91622,14:39:12,01,test,SART,4,go,124,799,25,90,go,7,13ptc,0,0,0,0,0,Omission,0,83,87,644,712,68,0.0,0.9,BBAA
3.8.10,Windows,91622,14:39:12,01,test,SART,4,go,125,800,25,90,go,6,10ptc,0,0,0,0,0,Omission,0,83,87,645,713,68,0.0,0.9,BBAA
3.8.10,Windows,91622,14:39:12,01,test,SART,4,go,126,801,25,90,go,6,21ptc,0,0,0,0,0,Omission,0,83,87,646,714,68,0.0,0.9,BBAA
3.8.10,Windows,91622,14:39:12,01,test,SART,4,go,127,802,25,90,go,7,19ptc,0,0,0,0,0,Omission,0,83,87,647,715,68,0.0,0.9,BBAA
3.8.10,Windows,91622,14:39:12,01,test,SART,4,go,128,803,25,90,go,8,13ptc,0,0,0,0,0,Omission,0,83,87,648,716,68,0.0,0.9,BBAA
3.8.10,Windows,91622,14:39:12,01,test,SART,4,go,129,804,25,90,go,9,10ptc,0,0,0,0,0,Omission,0,83,87,649,717,68,0.0,0.9,BBAA
3.8.10,Windows,91622,14:39:12,01,test,SART,4,go,130,805,25,90,go,5,16ptc,0,0,0,0,0,Omission,0,83,87,650,718,68,0.0,0.9,BBAA
3.8.10,Windows,91622,14:39:12,01,test,SART,4,go,131,806,25,90,go,4,13ptc,0,0,0,0,0,Omission,0,83,87,651,719,68,0.0,0.9,BBAA
